time,ax,ay,az
2019-11-21 14:16:58.7660,-0.0,-0.0,-0.0
2019-11-21 14:16:58.8660,-0.01,0.01,-0.0
2019-11-21 14:16:58.9660,0.02,-0.04,-0.03
2019-11-21 14:16:59.0660,0.02,0.02,-0.01
2019-11-21 14:16:59.1660,-0.03,-0.01,-0.0
2019-11-21 14:16:59.2660,-0.03,0.58,-0.04
2019-11-21 14:16:59.3660,0.01,-0.0,-0.03
2019-11-21 14:16:59.4660,-0.03,-0.03,-0.03
2019-11-21 14:16:59.5660,-0.01,-0.0,0.02
2019-11-21 14:16:59.6660,0.02,0.01,0.1
2019-11-21 14:16:59.7660,-0.06,-0.09,0.06
2019-11-21 14:16:59.8660,0.03,-0.04,-0.19
2019-11-21 14:16:59.9660,-0.07,0.1,0.05
2019-11-21 14:17:00.0670,-0.01,-0.09,-0.06
2019-11-21 14:17:00.1660,0.05,-0.06,-0.12
2019-11-21 14:17:00.2670,-0.08,-0.15,-0.13
2019-11-21 14:17:00.3660,-0.04,-0.02,-0.24
2019-11-21 14:17:00.4670,-1.38,0.42,-0.2
2019-11-21 14:17:00.5670,-0.29,0.2,-0.29
2019-11-21 14:17:00.6670,0.08,-0.33,0.12
2019-11-21 14:17:00.7670,0.81,-0.7,0.23
2019-11-21 14:17:00.8670,0.03,0.2,0.43
2019-11-21 14:17:00.9670,0.04,0.84,-0.12
2019-11-21 14:17:01.0670,-0.65,0.4,-0.49
2019-11-21 14:17:01.1670,-0.42,-0.31,0.43
2019-11-21 14:17:01.2670,-0.11,0.15,0.13
2019-11-21 14:17:01.3670,-0.13,0.03,0.1
2019-11-21 14:17:01.4670,0.58,-0.2,0.7
2019-11-21 14:17:01.5670,-0.17,-0.05,0.08
2019-11-21 14:17:01.6670,0.39,0.29,0.18
2019-11-21 14:17:01.7670,1.32,1.18,-0.07
2019-11-21 14:17:01.8670,0.12,0.15,-0.48
2019-11-21 14:17:01.9670,0.6,-0.56,-0.04
2019-11-21 14:17:02.0680,0.74,-0.15,-0.25
2019-11-21 14:17:02.1680,-0.47,2.16,-0.92
2019-11-21 14:17:02.2670,-2.08,0.92,-0.02
2019-11-21 14:17:02.3670,-1.47,-0.99,0.42
2019-11-21 14:17:02.4680,-0.48,0.15,0.15
2019-11-21 14:17:02.5680,-0.01,0.04,0.07
2019-11-21 14:17:02.6680,0.12,-0.0,-0.01
2019-11-21 14:17:02.7680,0.22,0.44,-0.01
2019-11-21 14:17:02.8680,1.25,0.78,0.02
2019-11-21 14:17:02.9680,1.07,-0.1,-0.1
2019-11-21 14:17:03.0680,1.03,-0.41,-0.05
2019-11-21 14:17:03.1680,0.89,0.1,0.34
2019-11-21 14:17:03.2680,-0.03,0.94,0.63
2019-11-21 14:17:03.3680,-2.75,0.88,0.07
2019-11-21 14:17:03.4680,-1.57,3.34,-0.51
2019-11-21 14:17:03.5680,0.23,0.04,-0.03
2019-11-21 14:17:03.6680,-0.03,-0.02,-0.11
2019-11-21 14:17:03.7680,-0.04,0.05,0.15
2019-11-21 14:17:03.8680,0.25,0.17,-0.03
2019-11-21 14:17:03.9680,0.72,0.49,0.16
2019-11-21 14:17:04.0680,1.66,0.66,0.39
2019-11-21 14:17:04.1690,1.29,-0.3,0.19
2019-11-21 14:17:04.2690,0.68,-0.43,0.05
2019-11-21 14:17:04.3690,0.18,0.49,0.11
2019-11-21 14:17:04.4680,-2.31,1.31,-0.41
2019-11-21 14:17:04.5690,1.1,1.92,-0.66
2019-11-21 14:17:04.6690,0.51,-0.16,-0.07
2019-11-21 14:17:04.7690,0.15,-0.01,-0.11
2019-11-21 14:17:04.8690,-0.05,-0.0,0.05
2019-11-21 14:17:04.9690,0.16,0.27,0.07
2019-11-21 14:17:05.0690,0.98,0.6,0.03
2019-11-21 14:17:05.1690,1.66,-0.05,-0.1
2019-11-21 14:17:05.2690,1.3,-0.44,0.01
2019-11-21 14:17:05.3690,0.71,-0.31,-0.07
2019-11-21 14:17:05.4690,0.14,1.16,-0.37
2019-11-21 14:17:05.5690,-2.49,0.81,-0.78
2019-11-21 14:17:05.6690,-0.52,0.2,-0.29
2019-11-21 14:17:05.7690,0.16,0.17,-0.04
2019-11-21 14:17:05.8690,-0.12,0.01,0.01
2019-11-21 14:17:05.9700,-0.03,0.0,0.0
2019-11-21 14:17:06.0700,0.31,0.38,0.19
2019-11-21 14:17:06.1700,1.91,1.0,-0.05
2019-11-21 14:17:06.2700,0.2,0.06,-0.11
2019-11-21 14:17:06.3700,0.98,-0.66,-0.19
2019-11-21 14:17:06.4700,0.64,-0.18,-0.26
2019-11-21 14:17:06.5700,-0.51,2.35,-0.8
2019-11-21 14:17:06.6700,-2.58,0.86,0.13
2019-11-21 14:17:06.7700,-1.97,-0.57,0.32
2019-11-21 14:17:06.8700,-0.36,-0.04,0.07
2019-11-21 14:17:06.9700,0.02,0.04,0.01
2019-11-21 14:17:07.0700,0.0,0.0,0.0
2019-11-21 14:17:07.1700,0.37,0.35,0.02
2019-11-21 14:17:07.2700,2.09,1.53,-0.19
2019-11-21 14:17:07.3700,-0.27,-0.1,-0.51
2019-11-21 14:17:07.4700,0.67,-0.49,-0.05
2019-11-21 14:17:07.5700,0.29,0.29,0.31
2019-11-21 14:17:07.6710,-1.64,2.02,-0.51
2019-11-21 14:17:07.7700,-1.66,0.82,0.09
2019-11-21 14:17:07.8710,-1.02,0.34,0.0
2019-11-21 14:17:07.9710,-0.25,-0.02,0.09
2019-11-21 14:17:08.0710,0.1,0.06,-0.01
2019-11-21 14:17:08.1710,0.03,0.03,0.06
2019-11-21 14:17:08.2710,0.43,0.42,0.1
2019-11-21 14:17:08.3710,0.94,1.3,0.1
2019-11-21 14:17:08.4710,0.71,-0.61,0.14
2019-11-21 14:17:08.5710,0.52,-0.52,-0.07
2019-11-21 14:17:08.6710,-0.02,0.58,-0.17
2019-11-21 14:17:08.7710,-2.1,1.96,-0.24
2019-11-21 14:17:08.8710,2.08,0.49,2.01
2019-11-21 14:17:08.9710,0.25,0.19,-0.39
2019-11-21 14:17:09.0710,0.22,0.05,-0.15
2019-11-21 14:17:09.1710,0.05,0.08,-0.03
2019-11-21 14:17:09.2710,0.02,0.03,-0.01
2019-11-21 14:17:09.3710,0.55,0.42,-0.07
2019-11-21 14:17:09.4710,1.22,1.34,0.27
2019-11-21 14:17:09.5720,1.2,-0.64,0.18
2019-11-21 14:17:09.6710,0.65,-0.5,-0.01
2019-11-21 14:17:09.7720,0.22,0.58,-0.16
2019-11-21 14:17:09.8710,-2.65,1.87,-0.49
2019-11-21 14:17:09.9710,3.89,0.03,1.67
2019-11-21 14:17:10.0720,0.55,-0.05,-0.47
2019-11-21 14:17:10.1720,0.19,0.02,-0.16
2019-11-21 14:17:10.2720,0.07,0.03,-0.13
2019-11-21 14:17:10.3720,0.05,0.25,0.22
2019-11-21 14:17:10.4720,0.79,0.51,-0.05
2019-11-21 14:17:10.5720,1.92,0.23,0.05
2019-11-21 14:17:10.6720,1.37,-0.67,0.03
2019-11-21 14:17:10.7720,0.65,-0.37,-0.15
2019-11-21 14:17:10.8720,0.02,1.08,-0.22
2019-11-21 14:17:10.9720,-2.43,0.87,-0.57
2019-11-21 14:17:11.0720,-0.96,2.0,-1.63
2019-11-21 14:17:11.1720,0.19,-0.03,-0.14
2019-11-21 14:17:11.2730,0.0,0.02,-0.05
2019-11-21 14:17:11.3730,-0.03,-0.01,0.01
2019-11-21 14:17:11.4720,0.15,0.25,0.16
2019-11-21 14:17:11.5730,1.61,0.95,-0.07
2019-11-21 14:17:11.6730,0.78,0.11,-0.03
2019-11-21 14:17:11.7730,1.19,-0.67,-0.15
2019-11-21 14:17:11.8730,0.65,0.0,-0.02
2019-11-21 14:17:11.9730,-0.78,1.92,-0.01
2019-11-21 14:17:12.0730,-2.17,0.98,-0.5
2019-11-21 14:17:12.1730,-0.99,-0.57,0.55
2019-11-21 14:17:12.2730,-0.27,0.05,-0.03
2019-11-21 14:17:12.3730,0.14,0.05,0.03
2019-11-21 14:17:12.4730,0.03,-0.01,-0.01
2019-11-21 14:17:12.5730,0.26,0.4,0.18
2019-11-21 14:17:12.6730,1.5,1.52,-0.19
2019-11-21 14:17:12.7730,-0.22,-0.32,-0.13
2019-11-21 14:17:12.8730,0.62,-0.54,-0.24
2019-11-21 14:17:12.9730,0.08,0.39,-0.18
2019-11-21 14:17:13.0730,-1.95,1.94,-0.25
2019-11-21 14:17:13.1730,0.87,0.58,1.43
2019-11-21 14:17:13.2740,0.14,0.15,-0.33
2019-11-21 14:17:13.3740,0.15,0.09,-0.09
2019-11-21 14:17:13.4740,0.05,0.08,-0.0
2019-11-21 14:17:13.5740,0.16,0.13,0.06
2019-11-21 14:17:13.6740,0.75,0.47,-0.09
2019-11-21 14:17:13.7730,1.86,0.34,0.15
2019-11-21 14:17:13.8740,1.49,-0.59,-0.0
2019-11-21 14:17:13.9740,0.62,-0.45,-0.12
2019-11-21 14:17:14.0740,-0.01,0.98,-0.4
2019-11-21 14:17:14.1740,-3.06,1.15,-0.55
2019-11-21 14:17:14.2740,-0.59,2.27,-1.22
2019-11-21 14:17:14.3740,0.27,-0.08,-0.09
2019-11-21 14:17:14.4740,0.07,-0.03,-0.13
2019-11-21 14:17:14.5740,0.03,0.02,-0.02
2019-11-21 14:17:14.6740,0.13,0.21,0.15
2019-11-21 14:17:14.7740,1.36,0.81,0.05
2019-11-21 14:17:14.8750,1.12,0.15,0.07
2019-11-21 14:17:14.9750,1.18,-0.66,-0.16
2019-11-21 14:17:15.0740,0.69,-0.04,-0.05
2019-11-21 14:17:15.1750,-0.55,2.12,-0.24
2019-11-21 14:17:15.2750,-2.37,1.17,-0.4
2019-11-21 14:17:15.3750,-0.82,-0.68,0.28
2019-11-21 14:17:15.4750,-0.52,-0.04,-0.03
2019-11-21 14:17:15.5750,-0.02,0.01,-0.04
2019-11-21 14:17:15.6750,0.05,0.02,-0.06
2019-11-21 14:17:15.7750,0.31,0.41,0.1
2019-11-21 14:17:15.8750,2.19,1.79,-0.24
2019-11-21 14:17:15.9750,-0.03,-0.23,-0.28
2019-11-21 14:17:16.0750,0.69,-0.63,-0.01
2019-11-21 14:17:16.1750,0.42,0.31,-0.11
2019-11-21 14:17:16.2750,-2.2,1.78,-0.32
2019-11-21 14:17:16.3750,1.32,1.01,2.15
2019-11-21 14:17:16.4750,0.29,0.05,-0.41
2019-11-21 14:17:16.5750,0.2,0.01,-0.2
2019-11-21 14:17:16.6760,0.03,0.11,-0.07
2019-11-21 14:17:16.7760,0.06,0.09,0.02
2019-11-21 14:17:16.8750,0.87,0.53,-0.16
2019-11-21 14:17:16.9760,1.72,0.15,-0.35
2019-11-21 14:17:17.0760,1.41,-0.51,-0.06
2019-11-21 14:17:17.1760,0.76,-0.47,-0.11
2019-11-21 14:17:17.2760,0.26,1.15,-0.07
2019-11-21 14:17:17.3760,-3.1,0.88,-0.37
2019-11-21 14:17:17.4760,-0.68,-0.11,-0.61
2019-11-21 14:17:17.5760,-0.03,0.14,-0.0
2019-11-21 14:17:17.6760,-0.09,0.01,-0.04
2019-11-21 14:17:17.7760,-0.06,0.0,-0.02
2019-11-21 14:17:17.8760,0.1,0.3,0.13
2019-11-21 14:17:17.9760,1.54,1.02,0.2
2019-11-21 14:17:18.0760,0.6,-0.06,-0.06
2019-11-21 14:17:18.1760,1.05,-0.69,-0.17
2019-11-21 14:17:18.2760,0.7,-0.12,-0.1
2019-11-21 14:17:18.3760,-0.8,2.26,-0.16
2019-11-21 14:17:18.4760,-2.22,1.06,-0.32
2019-11-21 14:17:18.5760,-1.42,-0.29,0.27
2019-11-21 14:17:18.6770,-0.43,0.03,-0.01
2019-11-21 14:17:18.7760,0.0,0.03,-0.07
2019-11-21 14:17:18.8770,0.08,0.04,-0.11
2019-11-21 14:17:18.9770,0.27,0.44,0.15
2019-11-21 14:17:19.0760,2.2,1.68,-0.28
2019-11-21 14:17:19.1770,-0.49,-0.15,-0.4
2019-11-21 14:17:19.2770,0.68,-0.56,-0.13
2019-11-21 14:17:19.3770,0.06,0.38,-0.25
2019-11-21 14:17:19.4770,-1.53,1.18,0.07
2019-11-21 14:17:19.5770,-0.93,1.06,1.36
2019-11-21 14:17:19.6770,-0.23,0.46,-0.01
2019-11-21 14:17:19.7770,-0.1,-0.0,-0.1
2019-11-21 14:17:19.8770,0.04,0.03,-0.1
2019-11-21 14:17:19.9770,0.03,0.02,-0.01
2019-11-21 14:17:20.0770,0.43,0.38,-0.01
2019-11-21 14:17:20.1770,1.32,1.65,0.03
2019-11-21 14:17:20.2770,0.76,-0.72,0.08
2019-11-21 14:17:20.3770,0.41,-0.5,-0.07
2019-11-21 14:17:20.4780,0.17,0.43,-0.15
2019-11-21 14:17:20.5780,-2.32,1.91,-0.89
2019-11-21 14:17:20.6780,2.54,1.14,1.2
2019-11-21 14:17:20.7770,0.37,0.04,-0.31
2019-11-21 14:17:20.8780,0.16,0.04,-0.18
2019-11-21 14:17:20.9780,0.01,0.02,-0.1
2019-11-21 14:17:21.0780,0.03,0.06,0.07
2019-11-21 14:17:21.1780,0.57,0.47,-0.18
2019-11-21 14:17:21.2780,0.77,1.03,0.19
2019-11-21 14:17:21.3780,0.95,-0.78,0.17
2019-11-21 14:17:21.4780,0.64,-0.54,-0.22
2019-11-21 14:17:21.5780,0.09,0.53,-0.26
2019-11-21 14:17:21.6780,-2.77,1.74,-0.57
2019-11-21 14:17:21.7790,1.15,1.64,-0.32
2019-11-21 14:17:21.8780,0.43,-0.12,-0.28
2019-11-21 14:17:21.9790,0.27,0.0,-0.26
2019-11-21 14:17:22.0780,-0.02,0.02,-0.09
2019-11-21 14:17:22.1780,0.03,0.16,0.09
2019-11-21 14:17:22.2780,0.66,0.52,-0.11
2019-11-21 14:17:22.3780,1.41,0.48,0.1
2019-11-21 14:17:22.4790,1.45,-0.76,0.05
2019-11-21 14:17:22.5780,0.69,-0.52,-0.16
2019-11-21 14:17:22.6780,0.12,0.8,-0.28
2019-11-21 14:17:22.7780,-2.73,1.03,-0.61
2019-11-21 14:17:22.8790,-1.1,1.24,-1.18
2019-11-21 14:17:22.9790,-0.16,-0.05,-0.26
2019-11-21 14:17:23.0790,-0.1,0.03,-0.07
2019-11-21 14:17:23.1790,-0.06,-0.01,-0.02
2019-11-21 14:17:23.2790,0.12,0.18,0.06
2019-11-21 14:17:23.3790,0.86,0.52,-0.17
2019-11-21 14:17:23.4790,1.86,0.19,-0.02
2019-11-21 14:17:23.5790,1.3,-0.51,-0.0
2019-11-21 14:17:23.6790,0.72,-0.42,-0.12
2019-11-21 14:17:23.7790,0.04,1.0,-0.37
2019-11-21 14:17:23.8790,-3.09,0.99,-0.78
2019-11-21 14:17:23.9800,-0.82,1.8,-1.28
2019-11-21 14:17:24.0790,0.22,-0.22,-0.26
2019-11-21 14:17:24.1800,0.1,-0.08,-0.21
2019-11-21 14:17:24.2790,-0.02,-0.02,-0.12
2019-11-21 14:17:24.3790,0.03,0.12,0.06
2019-11-21 14:17:24.4800,0.72,0.48,-0.16
2019-11-21 14:17:24.5790,1.59,0.3,0.04
2019-11-21 14:17:24.6800,1.31,-0.77,0.13
2019-11-21 14:17:24.7800,0.7,-0.44,0.17
2019-11-21 14:17:24.8800,0.17,0.59,0.13
2019-11-21 14:17:24.9800,-2.48,1.21,-0.42
2019-11-21 14:17:25.0800,0.1,1.84,-0.49
2019-11-21 14:17:25.1800,0.28,-0.15,-0.27
2019-11-21 14:17:25.2800,0.13,0.03,-0.13
2019-11-21 14:17:25.3800,0.04,0.01,-0.1
2019-11-21 14:17:25.4800,0.04,0.22,0.07
2019-11-21 14:17:25.5800,0.68,0.52,-0.16
2019-11-21 14:17:25.6800,1.05,0.8,0.14
2019-11-21 14:17:25.7800,1.0,-0.75,0.27
2019-11-21 14:17:25.8800,0.73,-0.57,-0.04
2019-11-21 14:17:25.9800,0.18,0.65,-0.11
2019-11-21 14:17:26.0800,-2.37,1.62,-0.51
2019-11-21 14:17:26.1810,1.1,1.7,0.5
2019-11-21 14:17:26.2810,0.31,-0.18,-0.33
2019-11-21 14:17:26.3800,0.19,0.07,-0.18
2019-11-21 14:17:26.4810,0.02,0.02,-0.15
2019-11-21 14:17:26.5810,0.02,0.09,0.06
2019-11-21 14:17:26.6810,0.38,0.38,-0.07
2019-11-21 14:17:26.7810,1.06,1.3,0.07
2019-11-21 14:17:26.8810,0.5,-0.59,0.13
2019-11-21 14:17:26.9810,0.48,-0.5,-0.1
2019-11-21 14:17:27.0810,0.11,0.48,-0.25
2019-11-21 14:17:27.1820,-2.1,1.92,-0.32
2019-11-21 14:17:27.2810,1.12,0.64,1.87
2019-11-21 14:17:27.3810,0.06,0.26,-0.32
2019-11-21 14:17:27.4810,-0.0,0.05,-0.07
2019-11-21 14:17:27.5810,0.04,0.03,-0.11
2019-11-21 14:17:27.6810,0.05,0.15,0.03
2019-11-21 14:17:27.7820,0.46,0.43,0.03
2019-11-21 14:17:27.8810,1.22,1.01,0.18
2019-11-21 14:17:27.9810,1.19,-0.67,0.11
2019-11-21 14:17:28.0820,0.56,-0.44,0.0
2019-11-21 14:17:28.1820,0.01,0.64,-0.02
2019-11-21 14:17:28.2820,-2.43,1.35,-0.58
2019-11-21 14:17:28.3820,-0.53,2.04,-1.07
2019-11-21 14:17:28.4820,0.25,-0.21,-0.24
2019-11-21 14:17:28.5820,0.1,-0.01,-0.12
2019-11-21 14:17:28.6820,0.0,0.09,-0.01
2019-11-21 14:17:28.7820,0.09,0.1,0.04
2019-11-21 14:17:28.8820,1.04,0.64,-0.03
2019-11-21 14:17:28.9820,0.81,0.21,-0.29
2019-11-21 14:17:29.0820,1.27,-0.63,-0.18
2019-11-21 14:17:29.1820,0.58,-0.45,-0.02
2019-11-21 14:17:29.2820,-0.2,1.52,-0.08
2019-11-21 14:17:29.3830,-3.13,0.83,-0.81
2019-11-21 14:17:29.4820,-1.05,-0.74,-0.6
2019-11-21 14:17:29.5820,-0.47,0.0,0.17
2019-11-21 14:17:29.6830,0.08,0.05,-0.1
2019-11-21 14:17:29.7820,0.11,-0.01,-0.19
2019-11-21 14:17:29.8830,0.22,0.29,0.08
2019-11-21 14:17:29.9830,1.77,0.95,-0.25
2019-11-21 14:17:30.0830,0.19,-0.22,-0.22
2019-11-21 14:17:30.1820,0.84,-0.71,-0.25
2019-11-21 14:17:30.2830,0.63,0.1,-0.12
2019-11-21 14:17:30.3830,-0.82,2.02,-0.56
2019-11-21 14:17:30.4830,-2.28,0.76,-0.43
2019-11-21 14:17:30.5830,-1.42,-0.69,-0.36
2019-11-21 14:17:30.6830,-0.52,0.02,0.12
2019-11-21 14:17:30.7830,-0.01,0.05,-0.03
2019-11-21 14:17:30.8830,-0.08,0.02,-0.08
2019-11-21 14:17:30.9830,0.12,0.17,0.02
2019-11-21 14:17:31.0830,0.83,0.54,-0.07
2019-11-21 14:17:31.1830,1.55,-0.05,-0.12
2019-11-21 14:17:31.2830,1.52,-0.53,-0.21
2019-11-21 14:17:31.3830,0.69,-0.35,-0.31
2019-11-21 14:17:31.4830,0.17,0.94,-0.47
2019-11-21 14:17:31.5840,-3.0,0.98,-0.49
2019-11-21 14:17:31.6830,-0.25,1.87,-0.47
2019-11-21 14:17:31.7830,0.36,0.01,-0.16
2019-11-21 14:17:31.8840,-0.0,-0.08,-0.21
2019-11-21 14:17:31.9840,0.04,0.0,-0.09
2019-11-21 14:17:32.0840,0.09,0.12,0.01
2019-11-21 14:17:32.1840,0.6,0.46,-0.11
2019-11-21 14:17:32.2830,1.06,0.92,0.15
2019-11-21 14:17:32.3840,1.12,-0.76,0.22
2019-11-21 14:17:32.4840,0.57,-0.47,-0.02
2019-11-21 14:17:32.5840,-0.08,0.61,0.24
2019-11-21 14:17:32.6840,-1.96,1.56,-0.75
2019-11-21 14:17:32.7840,2.65,0.3,1.3
2019-11-21 14:17:32.8850,0.36,-0.15,-0.15
2019-11-21 14:17:32.9840,0.07,0.01,-0.13
2019-11-21 14:17:33.0840,-0.03,0.01,-0.1
2019-11-21 14:17:33.1840,-0.06,-0.05,-0.05
2019-11-21 14:17:33.2840,0.18,0.37,0.14
2019-11-21 14:17:33.3840,2.18,1.36,-0.14
2019-11-21 14:17:33.4850,0.25,-0.08,-0.3
2019-11-21 14:17:33.5840,0.82,-0.71,-0.32
2019-11-21 14:17:33.6850,0.45,-0.01,-0.31
2019-11-21 14:17:33.7840,-0.81,2.56,-0.44
2019-11-21 14:17:33.8850,-2.34,0.72,-0.15
2019-11-21 14:17:33.9850,-1.91,-0.03,0.07
2019-11-21 14:17:34.0850,-0.36,-0.01,0.06
2019-11-21 14:17:34.1850,0.0,0.02,-0.07
2019-11-21 14:17:34.2850,-0.05,-0.01,-0.06
2019-11-21 14:17:34.3850,0.23,0.25,0.02
2019-11-21 14:17:34.4850,1.64,1.0,-0.25
2019-11-21 14:17:34.5850,0.42,0.18,-0.18
2019-11-21 14:17:34.6850,0.91,-0.7,-0.29
2019-11-21 14:17:34.7850,0.69,-0.22,-0.49
2019-11-21 14:17:34.8850,-0.33,1.84,-0.74
2019-11-21 14:17:34.9850,-2.18,0.74,-0.22
2019-11-21 14:17:35.0850,-0.56,-0.02,-0.02
2019-11-21 14:17:35.1850,-0.37,0.13,0.06
2019-11-21 14:17:35.2860,-0.23,0.01,-0.0
2019-11-21 14:17:35.3850,0.03,0.07,-0.06
2019-11-21 14:17:35.4860,0.19,0.24,0.08
2019-11-21 14:17:35.5850,1.22,0.79,-0.02
2019-11-21 14:17:35.6860,0.56,0.17,-0.08
2019-11-21 14:17:35.7860,1.12,-0.7,-0.18
2019-11-21 14:17:35.8860,0.75,-0.14,-0.03
2019-11-21 14:17:35.9850,-0.77,1.5,-0.04
2019-11-21 14:17:36.0860,-2.32,0.62,0.31
2019-11-21 14:17:36.1860,-0.49,-0.04,0.29
2019-11-21 14:17:36.2860,-0.18,-0.04,-0.02
2019-11-21 14:17:36.3860,-0.02,-0.05,-0.18
2019-11-21 14:17:36.4860,-0.01,-0.02,-0.09
2019-11-21 14:17:36.5860,0.11,0.03,-0.06
2019-11-21 14:17:36.6860,0.17,0.21,-0.1
2019-11-21 14:17:36.7860,1.03,0.34,-0.45
2019-11-21 14:17:36.8860,0.34,-0.42,-0.41
2019-11-21 14:17:36.9860,0.6,-0.36,-0.17
2019-11-21 14:17:37.0860,0.12,0.48,0.17
2019-11-21 14:17:37.1860,-0.95,0.98,0.62
2019-11-21 14:17:37.2870,-0.85,0.45,0.55
2019-11-21 14:17:37.3870,-0.37,-0.88,0.21
2019-11-21 14:17:37.4870,0.14,-0.09,-0.09
2019-11-21 14:17:37.5870,0.26,-0.1,-0.32
2019-11-21 14:17:37.6870,-0.14,-0.16,-0.02
2019-11-21 14:17:37.7870,-0.55,0.16,0.29
2019-11-21 14:17:37.8870,-0.16,-0.02,-0.05
2019-11-21 14:17:37.9870,-0.13,0.03,-0.07
2019-11-21 14:17:38.0870,-0.15,0.08,0.0
2019-11-21 14:17:38.1870,0.02,-0.06,-0.17
2019-11-21 14:17:38.2870,-0.0,0.06,0.0
2019-11-21 14:17:38.3870,0.02,0.04,-0.06
2019-11-21 14:17:38.4870,-0.04,0.06,-0.04
2019-11-21 14:17:38.5870,0.04,0.15,-0.05
2019-11-21 14:17:38.6870,0.15,-0.13,-0.05
2019-11-21 14:17:38.7870,-0.1,0.03,0.03
2019-11-21 14:17:38.8870,-0.05,-0.02,-0.04
2019-11-21 14:17:38.9870,-0.05,-0.03,0.03
2019-11-21 14:17:39.0870,-0.01,0.01,-0.02
2019-11-21 14:17:39.1880,-0.02,-0.0,-0.02
2019-11-21 14:17:39.2870,0.0,0.03,-0.02
2019-11-21 14:17:39.3880,-0.02,0.04,-0.01
2019-11-21 14:17:39.4880,-0.03,0.0,-0.01
2019-11-21 14:17:39.5880,-0.02,0.0,-0.02
2019-11-21 14:17:39.6870,-0.02,0.01,-0.02
2019-11-21 14:17:39.7880,-0.01,0.0,-0.02
2019-11-21 14:17:39.8880,-0.02,0.01,-0.01
2019-11-21 14:17:39.9870,0.04,-0.01,-0.05
