time,ax,ay,az
2019-11-21 14:9:03.6320,-0.0,0.02,0.03
2019-11-21 14:9:03.7320,-0.02,0.01,0.04
2019-11-21 14:9:03.8320,0.02,-0.0,-0.02
2019-11-21 14:9:03.9320,0.02,0.01,0.01
2019-11-21 14:9:04.0320,0.01,0.02,0.01
2019-11-21 14:9:04.1320,-0.01,-0.03,-0.08
2019-11-21 14:9:04.2330,0.01,-0.05,-0.0
2019-11-21 14:9:04.3320,0.09,0.04,-0.06
2019-11-21 14:9:04.4330,0.14,-0.18,-0.1
2019-11-21 14:9:04.5330,0.04,-0.02,0.01
2019-11-21 14:9:04.6330,-0.24,-0.26,0.17
2019-11-21 14:9:04.7330,0.18,0.2,0.13
2019-11-21 14:9:04.8330,0.02,-0.26,0.02
2019-11-21 14:9:04.9330,0.02,-0.01,-0.21
2019-11-21 14:9:05.0330,-0.1,-0.01,-0.3
2019-11-21 14:9:05.1330,-0.0,-0.02,0.03
2019-11-21 14:9:05.2330,-0.0,0.05,0.11
2019-11-21 14:9:05.3330,-0.03,-0.0,-0.09
2019-11-21 14:9:05.4330,0.01,0.04,-0.08
2019-11-21 14:9:05.5330,-0.05,-0.02,0.04
2019-11-21 14:9:05.6330,-0.12,-0.0,0.11
2019-11-21 14:9:05.7330,-0.11,-0.01,0.03
2019-11-21 14:9:05.8330,0.14,-0.0,-0.12
2019-11-21 14:9:05.9330,0.45,-0.05,-0.13
2019-11-21 14:9:06.0330,0.41,0.12,-0.13
2019-11-21 14:9:06.1340,0.34,0.27,-0.03
2019-11-21 14:9:06.2340,0.74,0.51,-0.46
2019-11-21 14:9:06.3340,1.08,0.38,-0.7
2019-11-21 14:9:06.4340,1.02,-0.3,-0.32
2019-11-21 14:9:06.5340,0.68,-0.29,-0.02
2019-11-21 14:9:06.6340,-0.31,0.39,0.48
2019-11-21 14:9:06.7340,-1.26,0.85,0.13
2019-11-21 14:9:06.8340,-1.39,0.6,-0.0
2019-11-21 14:9:06.9340,-1.27,0.11,0.0
2019-11-21 14:9:07.0340,-0.18,-0.04,-0.01
2019-11-21 14:9:07.1340,0.17,0.09,0.07
2019-11-21 14:9:07.2340,0.16,0.0,0.02
2019-11-21 14:9:07.3340,0.5,0.34,0.1
2019-11-21 14:9:07.4340,1.19,1.28,-0.25
2019-11-21 14:9:07.5340,0.31,-0.37,-0.1
2019-11-21 14:9:07.6340,0.23,-0.37,-0.21
2019-11-21 14:9:07.7340,0.12,0.44,0.08
2019-11-21 14:9:07.8340,-0.83,1.03,0.73
2019-11-21 14:9:07.9340,-1.74,0.39,0.48
2019-11-21 14:9:08.0340,0.24,0.1,0.09
2019-11-21 14:9:08.1350,0.56,0.03,-0.01
2019-11-21 14:9:08.2350,0.14,0.01,-0.02
2019-11-21 14:9:08.3350,-0.01,0.11,0.03
2019-11-21 14:9:08.4350,0.33,0.3,0.08
2019-11-21 14:9:08.5350,1.33,0.78,-0.19
2019-11-21 14:9:08.6350,0.62,0.39,-0.33
2019-11-21 14:9:08.7350,1.28,-0.27,-0.32
2019-11-21 14:9:08.8350,0.65,-0.1,-0.1
2019-11-21 14:9:08.9350,-0.57,0.79,0.28
2019-11-21 14:9:09.0350,-2.15,0.48,0.25
2019-11-21 14:9:09.1350,0.1,1.88,0.23
2019-11-21 14:9:09.2350,0.36,0.03,-0.08
2019-11-21 14:9:09.3350,-0.03,0.04,0.03
2019-11-21 14:9:09.4350,0.01,0.0,0.1
2019-11-21 14:9:09.5350,0.39,0.37,0.06
2019-11-21 14:9:09.6350,1.64,1.1,-0.5
2019-11-21 14:9:09.7350,-0.0,0.46,-0.29
2019-11-21 14:9:09.8350,1.08,-0.18,-0.26
2019-11-21 14:9:09.9360,0.49,-0.02,0.1
2019-11-21 14:9:10.0350,-0.65,1.12,0.2
2019-11-21 14:9:10.1350,-2.29,0.4,0.43
2019-11-21 14:9:10.2350,-0.1,-0.83,-0.05
2019-11-21 14:9:10.3360,0.17,0.15,-0.01
2019-11-21 14:9:10.4360,0.02,0.03,-0.04
2019-11-21 14:9:10.5360,0.01,-0.03,0.02
2019-11-21 14:9:10.6360,0.45,0.37,0.08
2019-11-21 14:9:10.7360,1.59,1.19,-0.32
2019-11-21 14:9:10.8360,-0.37,0.6,-0.2
2019-11-21 14:9:10.9360,0.79,-0.25,-0.5
2019-11-21 14:9:11.0360,0.5,0.2,-0.26
2019-11-21 14:9:11.1360,-0.75,0.92,0.31
2019-11-21 14:9:11.2360,-1.65,0.46,0.73
2019-11-21 14:9:11.3360,-0.83,-0.9,-0.4
2019-11-21 14:9:11.4360,0.02,0.06,-0.28
2019-11-21 14:9:11.5370,0.11,0.1,0.03
2019-11-21 14:9:11.6360,0.23,0.03,-0.09
2019-11-21 14:9:11.7360,0.51,0.41,0.14
2019-11-21 14:9:11.8360,1.26,1.42,-0.16
2019-11-21 14:9:11.9370,0.25,-0.53,-0.11
2019-11-21 14:9:12.0370,0.16,-0.36,-0.1
2019-11-21 14:9:12.1370,-0.02,0.38,0.05
2019-11-21 14:9:12.2360,-1.59,1.1,0.2
2019-11-21 14:9:12.3370,0.68,0.55,1.65
2019-11-21 14:9:12.4370,-0.62,0.37,0.34
2019-11-21 14:9:12.5370,-0.05,-0.05,-0.12
2019-11-21 14:9:12.6370,0.14,0.07,0.05
2019-11-21 14:9:12.7370,0.33,0.3,0.07
2019-11-21 14:9:12.8370,1.48,0.84,-0.4
2019-11-21 14:9:12.9370,0.06,0.4,-0.04
2019-11-21 14:9:13.0370,1.48,-0.32,-0.47
2019-11-21 14:9:13.1370,0.61,0.01,-0.36
2019-11-21 14:9:13.2370,-0.47,0.81,-0.05
2019-11-21 14:9:13.3370,-2.27,0.38,0.99
2019-11-21 14:9:13.4370,-0.35,-1.25,-0.28
2019-11-21 14:9:13.5370,0.05,0.07,-0.38
2019-11-21 14:9:13.6370,0.27,0.16,0.09
2019-11-21 14:9:13.7370,0.25,0.02,-0.06
2019-11-21 14:9:13.8380,0.72,0.59,0.02
2019-11-21 14:9:13.9370,1.54,1.25,-0.13
2019-11-21 14:9:14.0380,0.48,-0.7,-0.07
2019-11-21 14:9:14.1380,0.15,-0.33,-0.04
2019-11-21 14:9:14.2380,-0.05,0.38,0.15
2019-11-21 14:9:14.3370,-1.78,1.11,0.4
2019-11-21 14:9:14.4380,0.64,0.72,1.04
2019-11-21 14:9:14.5380,-0.52,0.31,0.1
2019-11-21 14:9:14.6380,-0.13,0.05,-0.1
2019-11-21 14:9:14.7380,0.06,-0.07,0.01
2019-11-21 14:9:14.8380,0.34,0.19,-0.01
2019-11-21 14:9:14.9380,1.26,0.67,-0.31
2019-11-21 14:9:15.0380,1.33,0.33,-0.52
2019-11-21 14:9:15.1380,1.4,-0.46,-0.42
2019-11-21 14:9:15.2380,0.54,-0.19,-0.24
2019-11-21 14:9:15.3380,-0.5,1.13,0.29
2019-11-21 14:9:15.4380,-2.28,0.32,0.53
2019-11-21 14:9:15.5380,0.33,-0.45,-0.21
2019-11-21 14:9:15.6380,0.33,0.09,0.01
2019-11-21 14:9:15.7390,0.01,-0.02,-0.11
2019-11-21 14:9:15.8390,0.04,-0.01,-0.06
2019-11-21 14:9:15.9390,0.43,0.39,0.08
2019-11-21 14:9:16.0380,1.82,1.44,-0.26
2019-11-21 14:9:16.1390,-0.34,0.29,-0.32
2019-11-21 14:9:16.2390,0.52,-0.32,-0.23
2019-11-21 14:9:16.3390,0.12,0.34,-0.16
2019-11-21 14:9:16.4380,-0.97,1.3,0.22
2019-11-21 14:9:16.5390,-1.58,0.92,0.55
2019-11-21 14:9:16.6390,-1.36,-0.05,-0.04
2019-11-21 14:9:16.7390,-0.23,-0.01,-0.17
2019-11-21 14:9:16.8390,0.1,0.14,0.02
2019-11-21 14:9:16.9390,0.29,0.01,-0.06
2019-11-21 14:9:17.0390,0.77,0.58,-0.15
2019-11-21 14:9:17.1390,1.69,0.67,-0.31
2019-11-21 14:9:17.2390,0.72,-0.7,-0.29
2019-11-21 14:9:17.3390,0.07,-0.39,-0.09
2019-11-21 14:9:17.4390,-0.29,0.5,-0.04
2019-11-21 14:9:17.5390,-2.02,0.91,0.14
2019-11-21 14:9:17.6400,0.64,1.33,1.07
2019-11-21 14:9:17.7390,-0.62,0.19,-0.16
2019-11-21 14:9:17.8400,-0.17,0.01,-0.1
2019-11-21 14:9:17.9400,0.03,-0.04,-0.01
2019-11-21 14:9:18.0400,0.23,0.12,0.02
2019-11-21 14:9:18.1400,0.8,0.58,-0.25
2019-11-21 14:9:18.2400,1.86,0.29,-0.54
2019-11-21 14:9:18.3400,0.98,-0.83,-0.37
2019-11-21 14:9:18.4400,0.18,-0.25,-0.11
2019-11-21 14:9:18.5400,-0.42,0.67,0.21
2019-11-21 14:9:18.6400,-1.86,0.67,0.41
2019-11-21 14:9:18.7400,0.89,0.59,0.84
2019-11-21 14:9:18.8400,-0.68,0.06,-0.23
2019-11-21 14:9:18.9400,-0.13,-0.01,-0.15
2019-11-21 14:9:19.0400,0.08,0.11,-0.01
2019-11-21 14:9:19.1400,0.27,0.22,0.03
2019-11-21 14:9:19.2410,1.11,0.68,-0.27
2019-11-21 14:9:19.3400,1.65,-0.03,-0.62
2019-11-21 14:9:19.4400,1.41,-0.61,-0.51
2019-11-21 14:9:19.5410,0.41,0.08,-0.22
2019-11-21 14:9:19.6400,-0.6,0.71,0.26
2019-11-21 14:9:19.7400,-2.23,0.34,0.74
2019-11-21 14:9:19.8410,0.95,0.14,-0.07
2019-11-21 14:9:19.9410,0.3,-0.26,0.01
2019-11-21 14:9:20.0400,0.1,0.06,-0.03
2019-11-21 14:9:20.1410,0.01,0.06,0.02
2019-11-21 14:9:20.2410,0.42,0.37,-0.11
2019-11-21 14:9:20.3410,1.86,1.44,-0.4
2019-11-21 14:9:20.4410,-0.49,0.2,-0.2
2019-11-21 14:9:20.5410,0.77,-0.19,-0.36
2019-11-21 14:9:20.6410,0.11,0.34,0.05
2019-11-21 14:9:20.7410,-1.03,1.0,0.33
2019-11-21 14:9:20.8410,-1.77,0.62,0.23
2019-11-21 14:9:20.9410,-1.17,-0.65,0.3
2019-11-21 14:9:21.0410,-0.29,0.07,-0.24
2019-11-21 14:9:21.1410,0.13,0.11,-0.06
2019-11-21 14:9:21.2410,0.16,-0.04,-0.03
2019-11-21 14:9:21.3410,0.51,0.4,0.08
2019-11-21 14:9:21.4410,1.19,1.47,-0.26
2019-11-21 14:9:21.5410,-0.06,-0.36,-0.15
2019-11-21 14:9:21.6410,0.31,-0.42,-0.21
2019-11-21 14:9:21.7410,-0.06,0.43,-0.07
2019-11-21 14:9:21.8410,-1.29,1.21,0.37
2019-11-21 14:9:21.9420,-1.34,0.6,0.45
2019-11-21 14:9:22.0420,-1.1,-0.15,-0.09
2019-11-21 14:9:22.1420,-0.25,-0.01,-0.16
2019-11-21 14:9:22.2420,0.1,0.1,-0.15
2019-11-21 14:9:22.3420,0.22,-0.02,-0.04
2019-11-21 14:9:22.4420,0.49,0.44,-0.08
2019-11-21 14:9:22.5420,1.19,1.44,-0.13
2019-11-21 14:9:22.6420,0.1,-0.58,-0.22
2019-11-21 14:9:22.7420,0.16,-0.49,-0.1
2019-11-21 14:9:22.8420,-0.33,0.69,-0.08
2019-11-21 14:9:22.9420,-1.75,1.35,0.48
2019-11-21 14:9:23.0420,0.07,0.45,0.51
2019-11-21 14:9:23.1420,-1.08,0.15,0.14
2019-11-21 14:9:23.2420,-0.27,-0.03,-0.05
2019-11-21 14:9:23.3430,0.06,0.05,-0.03
2019-11-21 14:9:23.4420,0.23,0.01,-0.02
2019-11-21 14:9:23.5420,0.74,0.59,-0.19
2019-11-21 14:9:23.6420,1.91,0.18,-0.52
2019-11-21 14:9:23.7420,0.9,-0.88,-0.25
2019-11-21 14:9:23.8430,0.15,-0.35,-0.07
2019-11-21 14:9:23.9430,-0.58,0.83,0.08
2019-11-21 14:9:24.0430,-2.6,0.52,0.26
2019-11-21 14:9:24.1430,-0.46,2.99,0.12
2019-11-21 14:9:24.2430,0.07,0.12,-0.24
2019-11-21 14:9:24.3430,0.01,0.04,-0.07
2019-11-21 14:9:24.4430,-0.0,-0.04,-0.14
2019-11-21 14:9:24.5430,0.32,0.3,0.17
2019-11-21 14:9:24.6430,1.43,0.96,-0.08
2019-11-21 14:9:24.7430,-0.17,0.55,-0.45
2019-11-21 14:9:24.8430,1.02,-0.29,-0.53
2019-11-21 14:9:24.9430,0.34,0.23,-0.24
2019-11-21 14:9:25.0430,-0.72,1.31,0.6
2019-11-21 14:9:25.1430,-1.81,0.58,0.56
2019-11-21 14:9:25.2430,-1.22,-0.29,-0.19
2019-11-21 14:9:25.3430,0.01,0.11,-0.02
2019-11-21 14:9:25.4440,0.08,0.04,-0.19
2019-11-21 14:9:25.5440,0.14,0.01,-0.14
2019-11-21 14:9:25.6430,0.56,0.43,-0.12
2019-11-21 14:9:25.7440,1.34,1.59,-0.2
2019-11-21 14:9:25.8440,0.37,-0.56,-0.11
2019-11-21 14:9:25.9440,0.08,-0.33,0.0
2019-11-21 14:9:26.0440,-0.13,0.39,-0.05
2019-11-21 14:9:26.1430,-2.17,1.32,0.63
2019-11-21 14:9:26.2440,1.31,1.04,1.06
2019-11-21 14:9:26.3440,-0.47,0.21,-0.02
2019-11-21 14:9:26.4440,-0.04,0.01,-0.11
2019-11-21 14:9:26.5440,0.12,0.13,-0.08
2019-11-21 14:9:26.6440,0.3,0.17,0.02
2019-11-21 14:9:26.7440,1.0,0.68,-0.36
2019-11-21 14:9:26.8440,1.69,0.01,-0.48
2019-11-21 14:9:26.9440,1.0,-0.85,-0.34
2019-11-21 14:9:27.0440,0.14,-0.31,-0.07
2019-11-21 14:9:27.1440,-0.36,0.63,0.1
2019-11-21 14:9:27.2450,-2.63,0.58,0.45
2019-11-21 14:9:27.3440,0.27,1.14,-0.12
2019-11-21 14:9:27.4450,0.5,-0.12,-0.07
2019-11-21 14:9:27.5450,-0.02,0.09,-0.13
2019-11-21 14:9:27.6450,-0.03,-0.0,-0.02
2019-11-21 14:9:27.7450,0.3,0.28,0.06
2019-11-21 14:9:27.8450,1.38,0.92,-0.41
2019-11-21 14:9:27.9450,0.6,0.4,-0.25
2019-11-21 14:9:28.0450,1.24,-0.44,-0.49
2019-11-21 14:9:28.1450,0.29,0.01,-0.13
2019-11-21 14:9:28.2450,-0.83,1.3,0.55
2019-11-21 14:9:28.3450,-2.25,0.38,0.38
2019-11-21 14:9:28.4450,0.05,-0.13,0.32
2019-11-21 14:9:28.5450,0.43,0.11,-0.06
2019-11-21 14:9:28.6450,0.09,0.02,-0.15
2019-11-21 14:9:28.7450,0.05,0.08,-0.07
2019-11-21 14:9:28.8450,0.33,0.32,-0.04
2019-11-21 14:9:28.9450,1.67,1.15,-0.21
2019-11-21 14:9:29.0450,-0.47,0.54,-0.35
2019-11-21 14:9:29.1450,0.94,-0.21,-0.44
2019-11-21 14:9:29.2460,0.37,0.0,-0.26
2019-11-21 14:9:29.3460,-0.89,1.38,0.32
2019-11-21 14:9:29.4450,-2.11,0.83,0.81
2019-11-21 14:9:29.5450,-1.26,-0.73,0.23
2019-11-21 14:9:29.6460,-0.46,0.09,-0.21
2019-11-21 14:9:29.7460,0.01,0.04,-0.11
2019-11-21 14:9:29.8460,0.17,-0.13,-0.13
2019-11-21 14:9:29.9460,0.31,0.34,0.08
2019-11-21 14:9:30.0460,1.54,1.5,-0.07
2019-11-21 14:9:30.1460,-0.36,0.13,-0.43
2019-11-21 14:9:30.2460,0.59,-0.36,-0.27
2019-11-21 14:9:30.3460,0.06,0.37,-0.06
2019-11-21 14:9:30.4460,-1.56,1.45,0.42
2019-11-21 14:9:30.5460,0.7,0.47,1.48
2019-11-21 14:9:30.6460,-1.02,0.23,-0.02
2019-11-21 14:9:30.7460,-0.18,-0.08,-0.15
2019-11-21 14:9:30.8460,0.07,0.05,-0.21
2019-11-21 14:9:30.9460,0.21,0.08,-0.06
2019-11-21 14:9:31.0460,0.71,0.63,-0.21
2019-11-21 14:9:31.1460,1.72,0.24,-0.7
2019-11-21 14:9:31.2470,0.98,-0.91,-0.34
2019-11-21 14:9:31.3470,0.2,-0.32,-0.05
2019-11-21 14:9:31.4470,-0.44,0.94,0.2
2019-11-21 14:9:31.5470,-2.72,0.55,0.35
2019-11-21 14:9:31.6470,0.73,0.61,0.14
2019-11-21 14:9:31.7470,0.62,0.06,-0.11
2019-11-21 14:9:31.8470,0.06,0.07,-0.07
2019-11-21 14:9:31.9470,0.03,0.04,-0.0
2019-11-21 14:9:32.0470,0.26,0.28,0.09
2019-11-21 14:9:32.1470,1.64,1.29,-0.55
2019-11-21 14:9:32.2470,-0.05,0.68,-0.3
2019-11-21 14:9:32.3470,0.97,-0.4,-0.43
2019-11-21 14:9:32.4470,0.43,-0.06,-0.2
2019-11-21 14:9:32.5470,-0.9,1.25,0.47
2019-11-21 14:9:32.6470,-1.8,0.9,0.14
2019-11-21 14:9:32.7470,-1.78,-0.28,0.14
2019-11-21 14:9:32.8470,-0.46,-0.06,0.06
2019-11-21 14:9:32.9470,-0.11,-0.02,-0.11
2019-11-21 14:9:33.0470,0.13,-0.01,-0.09
2019-11-21 14:9:33.1470,0.47,0.41,-0.1
2019-11-21 14:9:33.2470,1.76,1.51,-0.04
2019-11-21 14:9:33.3470,-0.13,0.04,-0.44
2019-11-21 14:9:33.4480,0.58,-0.43,-0.36
2019-11-21 14:9:33.5480,0.03,0.29,-0.28
2019-11-21 14:9:33.6480,-1.38,1.38,0.42
2019-11-21 14:9:33.7480,-0.06,0.56,0.87
2019-11-21 14:9:33.8480,-1.31,-0.34,-0.18
2019-11-21 14:9:33.9480,-0.16,-0.08,-0.19
2019-11-21 14:9:34.0480,0.06,0.14,-0.05
2019-11-21 14:9:34.1480,0.18,0.09,-0.06
2019-11-21 14:9:34.2480,0.75,0.52,-0.15
2019-11-21 14:9:34.3480,1.53,0.7,-0.35
2019-11-21 14:9:34.4480,0.6,-0.72,-0.32
2019-11-21 14:9:34.5480,0.13,-0.41,-0.16
2019-11-21 14:9:34.6480,-0.24,0.69,0.04
2019-11-21 14:9:34.7480,-2.48,0.68,0.41
2019-11-21 14:9:34.8490,-0.44,2.49,0.01
2019-11-21 14:9:34.9480,-0.03,0.06,-0.11
2019-11-21 14:9:35.0480,-0.03,0.0,-0.13
2019-11-21 14:9:35.1490,0.06,0.06,-0.09
2019-11-21 14:9:35.2490,0.31,0.17,0.06
2019-11-21 14:9:35.3490,1.32,0.8,-0.34
2019-11-21 14:9:35.4490,0.61,0.37,-0.24
2019-11-21 14:9:35.5490,1.11,-0.44,-0.46
2019-11-21 14:9:35.6490,0.39,-0.3,-0.26
2019-11-21 14:9:35.7480,-0.7,1.73,0.07
2019-11-21 14:9:35.8480,-2.36,0.19,0.65
2019-11-21 14:9:35.9490,-1.07,-0.98,-0.69
2019-11-21 14:9:36.0490,-0.13,0.08,-0.01
2019-11-21 14:9:36.1490,-0.05,-0.01,-0.13
2019-11-21 14:9:36.2490,0.06,0.07,-0.03
2019-11-21 14:9:36.3490,0.4,0.32,0.02
2019-11-21 14:9:36.4490,1.82,1.63,-0.37
2019-11-21 14:9:36.5490,-0.23,0.18,-0.36
2019-11-21 14:9:36.6490,0.47,-0.4,-0.12
2019-11-21 14:9:36.7490,0.1,0.25,0.14
2019-11-21 14:9:36.8490,-1.55,1.61,-0.14
2019-11-21 14:9:36.9490,0.99,0.95,0.94
2019-11-21 14:9:37.0490,-0.64,0.31,-0.08
2019-11-21 14:9:37.1490,-0.22,-0.07,-0.21
2019-11-21 14:9:37.2490,0.07,0.05,-0.15
2019-11-21 14:9:37.3500,0.32,0.0,-0.01
2019-11-21 14:9:37.4490,0.65,0.55,-0.25
2019-11-21 14:9:37.5490,1.56,0.3,-0.32
2019-11-21 14:9:37.6500,0.72,-0.89,-0.23
2019-11-21 14:9:37.7500,0.24,-0.48,-0.22
2019-11-21 14:9:37.8500,-0.3,0.84,-0.1
2019-11-21 14:9:37.9500,-2.52,0.8,0.51
2019-11-21 14:9:38.0500,-0.08,2.29,0.27
2019-11-21 14:9:38.1500,0.45,0.11,-0.17
2019-11-21 14:9:38.2500,0.1,0.08,-0.03
2019-11-21 14:9:38.3500,0.03,0.1,-0.05
2019-11-21 14:9:38.4500,0.21,0.24,0.0
2019-11-21 14:9:38.5500,1.06,0.65,-0.18
2019-11-21 14:9:38.6500,1.11,0.22,-0.49
2019-11-21 14:9:38.7500,1.16,-0.56,-0.46
2019-11-21 14:9:38.8500,0.37,-0.29,-0.15
2019-11-21 14:9:38.9500,-0.68,1.19,0.17
2019-11-21 14:9:39.0500,-2.41,0.24,0.93
2019-11-21 14:9:39.1500,0.34,1.36,0.47
2019-11-21 14:9:39.2500,0.34,0.05,-0.21
2019-11-21 14:9:39.3510,-0.04,0.03,-0.1
2019-11-21 14:9:39.4510,0.05,0.05,0.07
2019-11-21 14:9:39.5510,0.19,0.25,0.05
2019-11-21 14:9:39.6510,1.11,0.66,-0.3
2019-11-21 14:9:39.7510,0.73,0.23,-0.42
2019-11-21 14:9:39.8510,1.01,-0.58,-0.52
2019-11-21 14:9:39.9510,0.34,-0.34,-0.37
2019-11-21 14:9:40.0510,-0.87,1.94,0.01
2019-11-21 14:9:40.1510,-2.39,0.1,0.81
2019-11-21 14:9:40.2510,-0.01,-0.11,0.13
2019-11-21 14:9:40.3510,0.26,0.05,-0.14
2019-11-21 14:9:40.4510,-0.08,-0.0,-0.1
2019-11-21 14:9:40.5510,0.04,0.01,-0.05
2019-11-21 14:9:40.6510,0.37,0.32,-0.11
2019-11-21 14:9:40.7510,1.69,1.25,-0.24
2019-11-21 14:9:40.8510,-0.14,0.37,-0.21
2019-11-21 14:9:40.9510,0.82,-0.38,-0.48
2019-11-21 14:9:41.0510,0.36,0.0,-0.33
2019-11-21 14:9:41.1510,-1.11,1.23,0.33
2019-11-21 14:9:41.2510,-1.85,0.74,0.69
2019-11-21 14:9:41.3520,-1.57,-0.6,-0.13
2019-11-21 14:9:41.4520,-0.37,0.06,-0.08
2019-11-21 14:9:41.5520,-0.01,0.04,-0.14
2019-11-21 14:9:41.6520,0.11,-0.03,-0.11
2019-11-21 14:9:41.7520,0.34,0.3,0.01
2019-11-21 14:9:41.8520,1.64,1.35,-0.57
2019-11-21 14:9:41.9520,-0.4,0.28,-0.42
2019-11-21 14:9:42.0520,0.35,-0.37,-0.33
2019-11-21 14:9:42.1520,0.15,0.25,-0.12
2019-11-21 14:9:42.2520,-1.03,1.05,0.63
2019-11-21 14:9:42.3520,-1.73,0.95,-0.01
2019-11-21 14:9:42.4520,-1.28,-0.58,0.28
2019-11-21 14:9:42.5520,-0.42,-0.06,-0.03
2019-11-21 14:9:42.6520,-0.06,-0.0,-0.09
2019-11-21 14:9:42.7520,0.05,0.05,-0.11
2019-11-21 14:9:42.8530,0.39,0.3,-0.04
2019-11-21 14:9:42.9520,1.69,1.46,-0.19
2019-11-21 14:9:43.0520,-0.18,0.22,-0.44
2019-11-21 14:9:43.1520,0.58,-0.38,-0.22
2019-11-21 14:9:43.2530,0.25,0.12,-0.14
2019-11-21 14:9:43.3520,-1.29,1.32,0.5
2019-11-21 14:9:43.4530,-0.7,0.78,0.28
2019-11-21 14:9:43.5530,-1.53,-0.09,0.19
2019-11-21 14:9:43.6530,-0.41,-0.08,-0.05
2019-11-21 14:9:43.7530,-0.02,0.03,-0.08
2019-11-21 14:9:43.8530,0.16,-0.02,-0.06
2019-11-21 14:9:43.9530,0.42,0.4,-0.15
2019-11-21 14:9:44.0530,1.15,1.4,-0.15
2019-11-21 14:9:44.1530,0.17,-0.52,-0.09
2019-11-21 14:9:44.2530,0.25,-0.49,-0.26
2019-11-21 14:9:44.3530,-0.07,0.4,0.07
2019-11-21 14:9:44.4530,-1.7,1.4,0.27
2019-11-21 14:9:44.5530,1.44,0.34,0.89
2019-11-21 14:9:44.6530,-0.89,0.33,-0.01
2019-11-21 14:9:44.7530,-0.31,-0.08,-0.07
2019-11-21 14:9:44.8530,-0.06,0.01,-0.08
2019-11-21 14:9:44.9530,0.1,0.03,-0.04
2019-11-21 14:9:45.0530,0.41,0.39,-0.17
2019-11-21 14:9:45.1530,1.45,1.36,-0.12
2019-11-21 14:9:45.2540,0.02,-0.31,-0.3
2019-11-21 14:9:45.3540,0.32,-0.52,-0.23
2019-11-21 14:9:45.4540,0.07,0.27,-0.2
2019-11-21 14:9:45.5530,-1.33,1.41,0.42
2019-11-21 14:9:45.6540,1.47,0.58,1.39
2019-11-21 14:9:45.7540,-0.85,0.16,0.07
2019-11-21 14:9:45.8540,-0.34,-0.09,-0.14
2019-11-21 14:9:45.9540,-0.06,-0.01,-0.14
2019-11-21 14:9:46.0540,0.13,-0.03,0.08
2019-11-21 14:9:46.1540,0.35,0.42,-0.26
2019-11-21 14:9:46.2540,1.5,1.43,-0.22
2019-11-21 14:9:46.3540,-0.18,-0.07,-0.44
2019-11-21 14:9:46.4540,0.33,-0.42,-0.45
2019-11-21 14:9:46.5540,0.12,0.3,-0.29
2019-11-21 14:9:46.6540,-1.08,0.92,0.6
2019-11-21 14:9:46.7540,-0.57,0.71,0.36
2019-11-21 14:9:46.8550,-1.48,-0.27,0.17
2019-11-21 14:9:46.9540,-0.46,-0.06,-0.11
2019-11-21 14:9:47.0540,-0.05,0.02,-0.08
2019-11-21 14:9:47.1550,0.02,-0.05,-0.07
2019-11-21 14:9:47.2550,0.45,0.38,-0.08
2019-11-21 14:9:47.3540,1.76,1.63,-0.08
2019-11-21 14:9:47.4550,-0.32,0.12,-0.64
2019-11-21 14:9:47.5550,0.49,-0.41,-0.38
2019-11-21 14:9:47.6550,0.03,0.21,-0.32
2019-11-21 14:9:47.7550,-0.96,1.02,0.36
2019-11-21 14:9:47.8550,0.01,0.76,1.32
2019-11-21 14:9:47.9550,-0.81,-0.01,0.56
2019-11-21 14:9:48.0550,-0.18,-0.1,-0.05
2019-11-21 14:9:48.1550,-0.04,0.13,-0.02
2019-11-21 14:9:48.2550,0.12,-0.09,-0.17
2019-11-21 14:9:48.3550,0.38,0.37,0.08
2019-11-21 14:9:48.4550,1.68,1.51,-0.23
2019-11-21 14:9:48.5550,-0.41,0.17,-0.29
2019-11-21 14:9:48.6550,0.47,-0.32,-0.43
2019-11-21 14:9:48.7550,0.04,0.25,-0.34
2019-11-21 14:9:48.8550,-1.03,1.09,0.14
2019-11-21 14:9:48.9550,-1.52,0.72,1.73
2019-11-21 14:9:49.0550,-1.4,-0.2,0.34
2019-11-21 14:9:49.1560,-0.33,-0.04,-0.11
2019-11-21 14:9:49.2560,0.04,0.08,-0.15
2019-11-21 14:9:49.3550,0.08,-0.02,-0.06
2019-11-21 14:9:49.4560,0.36,0.34,-0.14
2019-11-21 14:9:49.5550,1.35,1.41,-0.4
2019-11-21 14:9:49.6560,-0.51,0.17,-0.22
2019-11-21 14:9:49.7560,0.23,-0.35,-0.17
2019-11-21 14:9:49.8560,0.21,0.11,0.18
2019-11-21 14:9:49.9560,-0.73,1.34,0.38
2019-11-21 14:9:50.0560,-1.6,0.78,-0.04
2019-11-21 14:9:50.1560,-1.67,-0.38,0.05
2019-11-21 14:9:50.2560,-0.3,0.13,0.02
2019-11-21 14:9:50.3560,-0.09,-0.0,-0.06
2019-11-21 14:9:50.4560,-0.04,0.03,0.04
2019-11-21 14:9:50.5560,0.21,0.38,0.18
2019-11-21 14:9:50.6560,1.6,1.23,-0.32
2019-11-21 14:9:50.7560,-0.23,0.27,-0.29
2019-11-21 14:9:50.8560,0.89,-0.4,-0.47
2019-11-21 14:9:50.9570,0.22,0.15,-0.25
2019-11-21 14:9:51.0560,-0.93,1.17,0.2
2019-11-21 14:9:51.1570,-1.4,0.78,0.15
2019-11-21 14:9:51.2560,-1.63,-0.57,-0.42
2019-11-21 14:9:51.3570,-0.15,0.09,0.0
2019-11-21 14:9:51.4570,0.0,0.04,-0.17
2019-11-21 14:9:51.5570,-0.01,0.03,0.09
2019-11-21 14:9:51.6570,0.18,0.13,0.02
2019-11-21 14:9:51.7570,1.23,0.66,-0.71
2019-11-21 14:9:51.8570,0.52,0.72,-0.54
2019-11-21 14:9:51.9570,1.22,-0.47,-0.56
2019-11-21 14:9:52.0570,0.42,-0.31,-0.47
2019-11-21 14:9:52.1570,-0.79,0.69,-0.0
2019-11-21 14:9:52.2570,-1.85,0.58,-0.28
2019-11-21 14:9:52.3570,-0.42,2.08,0.61
2019-11-21 14:9:52.4570,-0.16,0.06,-0.17
2019-11-21 14:9:52.5570,0.06,0.0,-0.17
2019-11-21 14:9:52.6570,0.03,-0.0,-0.16
2019-11-21 14:9:52.7570,0.09,0.01,0.05
2019-11-21 14:9:52.8570,0.3,0.41,-0.05
2019-11-21 14:9:52.9570,1.41,1.15,0.09
2019-11-21 14:9:53.0570,-0.1,0.06,-0.41
2019-11-21 14:9:53.1580,0.88,-0.39,-0.28
2019-11-21 14:9:53.2580,0.33,0.09,-0.0
2019-11-21 14:9:53.3570,-0.81,1.15,0.4
2019-11-21 14:9:53.4580,-1.72,0.41,0.65
2019-11-21 14:9:53.5570,0.32,0.94,0.32
2019-11-21 14:9:53.6580,0.35,0.08,-0.15
2019-11-21 14:9:53.7580,0.08,0.08,-0.02
2019-11-21 14:9:53.8580,0.01,0.05,-0.07
2019-11-21 14:9:53.9580,0.08,0.18,-0.02
2019-11-21 14:9:54.0580,0.63,0.51,-0.12
2019-11-21 14:9:54.1580,0.96,0.2,-0.34
2019-11-21 14:9:54.2580,0.89,-0.75,-0.22
2019-11-21 14:9:54.3580,0.23,-0.45,0.08
2019-11-21 14:9:54.4580,0.06,0.35,0.1
2019-11-21 14:9:54.5580,-0.97,1.19,0.14
2019-11-21 14:9:54.6580,-1.06,0.73,0.3
2019-11-21 14:9:54.7580,-1.0,-0.4,0.32
2019-11-21 14:9:54.8580,-0.01,0.03,-0.06
2019-11-21 14:9:54.9580,-0.15,-0.04,-0.33
2019-11-21 14:9:55.0580,-0.04,-0.03,0.12
2019-11-21 14:9:55.1590,0.14,0.2,-0.1
2019-11-21 14:9:55.2590,0.93,0.68,-0.16
2019-11-21 14:9:55.3590,0.79,0.02,-0.36
2019-11-21 14:9:55.4590,1.21,-0.69,-0.59
2019-11-21 14:9:55.5590,0.15,-0.27,-0.59
2019-11-21 14:9:55.6590,-0.44,0.46,-0.37
2019-11-21 14:9:55.7590,-0.95,0.54,0.33
2019-11-21 14:9:55.8590,-1.18,0.45,0.38
2019-11-21 14:9:55.9590,-0.99,-0.14,-0.51
2019-11-21 14:9:56.0590,0.14,0.21,0.1
2019-11-21 14:9:56.1590,0.04,0.07,0.01
2019-11-21 14:9:56.2590,-0.07,-0.04,-0.13
2019-11-21 14:9:56.3590,0.1,0.03,-0.19
2019-11-21 14:9:56.4590,0.43,0.31,-0.06
2019-11-21 14:9:56.5590,0.95,0.6,-0.4
2019-11-21 14:9:56.6590,0.06,0.78,-0.31
2019-11-21 14:9:56.7590,1.32,-0.34,-0.27
2019-11-21 14:9:56.8590,0.61,-0.1,0.27
2019-11-21 14:9:56.9600,-0.1,0.45,0.46
2019-11-21 14:9:57.0590,-1.77,0.8,0.76
2019-11-21 14:9:57.1600,0.14,1.85,0.11
2019-11-21 14:9:57.2600,0.02,0.13,0.07
2019-11-21 14:9:57.3600,-0.18,-0.02,-0.08
2019-11-21 14:9:57.4600,-0.02,0.04,-0.09
2019-11-21 14:9:57.5600,0.15,-0.02,0.06
2019-11-21 14:9:57.6600,0.37,0.36,-0.03
2019-11-21 14:9:57.7590,1.02,1.05,-0.27
2019-11-21 14:9:57.8600,-0.27,0.06,-0.36
2019-11-21 14:9:57.9600,0.31,-0.44,-0.48
2019-11-21 14:9:58.0600,0.08,0.1,-0.39
2019-11-21 14:9:58.1600,-1.01,1.71,-0.4
2019-11-21 14:9:58.2600,-1.73,0.47,0.75
2019-11-21 14:9:58.3600,-1.36,-0.94,-0.71
2019-11-21 14:9:58.4600,-0.47,-0.0,0.11
2019-11-21 14:9:58.5600,-0.1,-0.02,-0.08
2019-11-21 14:9:58.6600,-0.09,-0.04,0.06
2019-11-21 14:9:58.7600,0.2,0.27,0.12
2019-11-21 14:9:58.8610,1.01,0.66,-0.25
2019-11-21 14:9:58.9600,0.84,0.06,-0.42
2019-11-21 14:9:59.0600,1.35,-0.66,-0.67
2019-11-21 14:9:59.1610,0.22,-0.29,-0.48
2019-11-21 14:9:59.2600,-0.16,0.78,-0.57
2019-11-21 14:9:59.3610,-3.08,1.15,0.34
2019-11-21 14:9:59.4610,0.97,1.09,0.58
2019-11-21 14:9:59.5610,-0.1,0.05,-0.18
2019-11-21 14:9:59.6610,0.01,0.05,-0.04
2019-11-21 14:9:59.7610,0.02,0.01,-0.04
2019-11-21 14:9:59.8610,0.27,0.08,-0.09
2019-11-21 14:9:59.9610,0.84,0.61,-0.19
2019-11-21 14:10:00.0610,1.66,0.02,-0.49
2019-11-21 14:10:00.1610,0.82,-0.74,-0.38
2019-11-21 14:10:00.2610,0.22,-0.37,-0.12
2019-11-21 14:10:00.3610,-0.35,0.62,0.01
2019-11-21 14:10:00.4610,-2.48,0.92,0.1
2019-11-21 14:10:00.5610,-0.27,2.38,0.0
2019-11-21 14:10:00.6610,0.07,-0.0,0.06
2019-11-21 14:10:00.7610,-0.08,0.01,-0.09
2019-11-21 14:10:00.8610,0.01,0.01,-0.08
2019-11-21 14:10:00.9610,0.27,0.13,-0.07
2019-11-21 14:10:01.0610,0.75,0.48,-0.33
2019-11-21 14:10:01.1610,1.52,0.26,-0.53
2019-11-21 14:10:01.2620,0.67,-0.68,-0.3
2019-11-21 14:10:01.3620,0.12,-0.44,-0.22
2019-11-21 14:10:01.4620,-0.26,0.61,-0.23
2019-11-21 14:10:01.5610,-1.94,1.44,0.5
2019-11-21 14:10:01.6620,1.44,-0.09,0.86
2019-11-21 14:10:01.7620,-0.62,0.27,-0.02
2019-11-21 14:10:01.8620,-0.12,0.01,-0.1
2019-11-21 14:10:01.9620,0.03,0.08,-0.05
2019-11-21 14:10:02.0620,0.18,0.06,-0.03
2019-11-21 14:10:02.1620,0.42,0.38,-0.19
2019-11-21 14:10:02.2620,1.23,1.14,-0.12
2019-11-21 14:10:02.3620,0.01,-0.43,-0.22
2019-11-21 14:10:02.4620,0.25,-0.47,-0.29
2019-11-21 14:10:02.5620,-0.01,0.35,-0.24
2019-11-21 14:10:02.6620,-1.25,1.36,0.72
2019-11-21 14:10:02.7620,0.8,0.21,0.94
2019-11-21 14:10:02.8620,-1.13,0.14,-0.0
2019-11-21 14:10:02.9620,-0.24,-0.06,-0.12
2019-11-21 14:10:03.0620,0.02,0.0,-0.13
2019-11-21 14:10:03.1630,0.19,0.1,0.04
2019-11-21 14:10:03.2630,0.41,0.4,-0.17
2019-11-21 14:10:03.3620,1.14,1.23,-0.25
2019-11-21 14:10:03.4630,-0.19,-0.24,-0.18
2019-11-21 14:10:03.5630,0.32,-0.25,-0.38
2019-11-21 14:10:03.6630,-0.0,0.33,-0.05
2019-11-21 14:10:03.7630,-1.47,1.34,0.44
2019-11-21 14:10:03.8630,0.98,0.98,1.31
2019-11-21 14:10:03.9630,-0.36,0.45,0.19
2019-11-21 14:10:04.0630,-0.18,-0.08,-0.08
2019-11-21 14:10:04.1630,-0.01,0.03,-0.08
2019-11-21 14:10:04.2630,0.11,0.02,-0.08
2019-11-21 14:10:04.3630,0.3,0.33,-0.08
2019-11-21 14:10:04.4630,1.23,1.13,-0.27
2019-11-21 14:10:04.5630,-0.4,0.12,-0.35
2019-11-21 14:10:04.6630,0.5,-0.38,-0.35
2019-11-21 14:10:04.7630,0.25,0.05,-0.14
2019-11-21 14:10:04.8630,-0.55,1.02,0.31
2019-11-21 14:10:04.9630,-1.72,0.45,0.48
2019-11-21 14:10:05.0630,-0.37,0.28,0.03
2019-11-21 14:10:05.1630,0.46,0.08,-0.11
2019-11-21 14:10:05.2640,-0.04,0.02,-0.1
2019-11-21 14:10:05.3640,-0.1,0.0,-0.07
2019-11-21 14:10:05.4640,0.01,0.01,-0.03
2019-11-21 14:10:05.5640,0.22,0.33,-0.02
2019-11-21 14:10:05.6640,1.4,0.66,-0.03
2019-11-21 14:10:05.7640,0.37,-0.41,-0.41
2019-11-21 14:10:05.8640,0.06,-0.46,-0.31
2019-11-21 14:10:05.9640,0.1,0.18,-0.08
2019-11-21 14:10:06.0640,-0.32,0.73,0.09
2019-11-21 14:10:06.1640,-0.86,0.3,0.35
2019-11-21 14:10:06.2640,-0.31,0.38,-0.52
2019-11-21 14:10:06.3640,-0.69,-1.58,-0.31
2019-11-21 14:10:06.4640,-0.13,-0.37,-0.0
2019-11-21 14:10:06.5640,-0.2,-0.1,0.23
2019-11-21 14:10:06.6640,-0.18,-0.05,0.22
2019-11-21 14:10:06.7640,-0.09,-0.02,0.03
2019-11-21 14:10:06.8640,-0.24,-0.1,-0.1
2019-11-21 14:10:06.9640,-0.02,-0.01,-0.15
2019-11-21 14:10:07.0640,0.13,-0.06,-0.2
2019-11-21 14:10:07.1650,0.03,-0.02,-0.07
2019-11-21 14:10:07.2650,-0.0,-0.04,-0.05
2019-11-21 14:10:07.3650,0.01,-0.06,-0.13
2019-11-21 14:10:07.4650,0.01,0.03,-0.11
2019-11-21 14:10:07.5650,-0.33,0.0,0.03
2019-11-21 14:10:07.6650,-0.11,-0.05,0.0
2019-11-21 14:10:07.7650,0.01,0.02,-0.05
2019-11-21 14:10:07.8650,0.02,0.03,-0.06
2019-11-21 14:10:07.9650,-0.1,-0.04,-0.03
2019-11-21 14:10:08.0650,0.01,-0.08,-0.06
2019-11-21 14:10:08.1650,0.05,-0.08,-0.12
2019-11-21 14:10:08.2650,-0.11,0.02,-0.05
2019-11-21 14:10:08.3650,-0.01,0.04,-0.07
2019-11-21 14:10:08.4650,-0.16,-0.01,-0.04
2019-11-21 14:10:08.5650,-0.13,-0.05,0.01
2019-11-21 14:10:08.6650,-0.08,0.02,-0.1
2019-11-21 14:10:08.7650,0.16,0.01,-0.06
2019-11-21 14:10:08.8650,-0.0,-0.0,-0.06
2019-11-21 14:10:08.9650,-0.1,0.03,-0.01
2019-11-21 14:10:09.0650,-0.0,0.02,-0.04
2019-11-21 14:10:09.1650,-0.06,-0.01,-0.01
2019-11-21 14:10:09.2660,-0.03,-0.0,-0.04
2019-11-21 14:10:09.3660,-0.02,0.01,-0.03
2019-11-21 14:10:09.4660,-0.02,0.0,-0.03
2019-11-21 14:10:09.5660,-0.01,-0.0,-0.08
