time,ax,ay,az
2019-11-21 14:23:52.4820,-0.01,-0.0,0.01
2019-11-21 14:23:52.5820,0.03,-0.0,0.01
2019-11-21 14:23:52.6820,0.0,0.01,0.0
2019-11-21 14:23:52.7820,-0.01,0.02,0.02
2019-11-21 14:23:52.8820,-0.03,-0.01,0.0
2019-11-21 14:23:52.9830,-0.02,-0.02,-0.01
2019-11-21 14:23:53.0830,-0.0,0.01,0.0
2019-11-21 14:23:53.1830,0.02,0.02,-0.0
2019-11-21 14:23:53.2830,0.03,0.0,-0.03
2019-11-21 14:23:53.3830,-0.02,-0.06,-0.01
2019-11-21 14:23:53.4830,-0.08,0.04,0.1
2019-11-21 14:23:53.5830,-0.16,-0.01,0.26
2019-11-21 14:23:53.6830,0.12,0.13,-0.06
2019-11-21 14:23:53.7830,0.15,0.05,0.02
2019-11-21 14:23:53.8830,-0.01,0.03,-0.11
2019-11-21 14:23:53.9830,-0.03,-0.08,-0.14
2019-11-21 14:23:54.0830,0.07,-0.05,-0.0
2019-11-21 14:23:54.1830,0.02,-0.07,-0.03
2019-11-21 14:23:54.2830,0.01,0.04,0.07
2019-11-21 14:23:54.3830,-0.01,0.04,-0.02
2019-11-21 14:23:54.4830,-0.03,0.15,-0.02
2019-11-21 14:23:54.5830,0.06,0.08,-0.01
2019-11-21 14:23:54.6830,-0.23,0.16,-0.06
2019-11-21 14:23:54.7840,-0.7,0.61,0.33
2019-11-21 14:23:54.8830,-1.17,0.57,-0.16
2019-11-21 14:23:54.9840,-1.01,-0.21,-0.05
2019-11-21 14:23:55.0830,-0.63,-0.11,0.02
2019-11-21 14:23:55.1840,0.2,0.46,0.21
2019-11-21 14:23:55.2840,1.42,1.04,-0.25
2019-11-21 14:23:55.3840,1.76,0.69,0.0
2019-11-21 14:23:55.4840,0.26,0.32,0.05
2019-11-21 14:23:55.5840,0.1,0.15,0.07
2019-11-21 14:23:55.6840,-0.03,0.02,0.07
2019-11-21 14:23:55.7840,-0.06,-0.06,-0.01
2019-11-21 14:23:55.8840,-0.29,0.33,0.3
2019-11-21 14:23:55.9840,-1.4,1.49,0.07
2019-11-21 14:23:56.0840,-0.55,0.91,-0.29
2019-11-21 14:23:56.1840,-0.69,-0.0,-0.04
2019-11-21 14:23:56.2840,-0.12,0.19,0.08
2019-11-21 14:23:56.3850,1.13,1.54,-0.46
2019-11-21 14:23:56.4840,2.31,1.04,-0.43
2019-11-21 14:23:56.5840,0.24,0.37,0.44
2019-11-21 14:23:56.6840,0.05,0.13,0.08
2019-11-21 14:23:56.7850,0.07,0.05,0.15
2019-11-21 14:23:56.8850,-0.12,0.05,-0.04
2019-11-21 14:23:56.9850,-0.4,0.48,0.44
2019-11-21 14:23:57.0850,-2.0,1.08,0.2
2019-11-21 14:23:57.1850,-1.72,-0.51,0.18
2019-11-21 14:23:57.2850,-0.69,-0.19,0.0
2019-11-21 14:23:57.3850,-0.06,0.72,0.19
2019-11-21 14:23:57.4850,2.86,0.89,-0.32
2019-11-21 14:23:57.5850,1.31,0.33,0.31
2019-11-21 14:23:57.6850,-0.26,-0.11,-0.15
2019-11-21 14:23:57.7850,-0.16,-0.09,-0.12
2019-11-21 14:23:57.8850,-0.12,0.09,0.03
2019-11-21 14:23:57.9850,-0.27,-0.1,-0.05
2019-11-21 14:23:58.0850,-1.16,0.8,0.33
2019-11-21 14:23:58.1850,-0.25,0.62,-0.43
2019-11-21 14:23:58.2850,-0.78,-0.28,-0.03
2019-11-21 14:23:58.3850,-0.54,0.14,0.29
2019-11-21 14:23:58.4860,0.52,1.63,0.02
2019-11-21 14:23:58.5860,3.46,0.46,-0.38
2019-11-21 14:23:58.6850,0.97,-0.47,-1.05
2019-11-21 14:23:58.7850,0.05,0.17,0.11
2019-11-21 14:23:58.8850,-0.06,0.16,0.05
2019-11-21 14:23:58.9860,-0.25,-0.03,-0.1
2019-11-21 14:23:59.0850,-0.44,0.49,0.33
2019-11-21 14:23:59.1860,-2.17,1.65,0.02
2019-11-21 14:23:59.2860,-1.72,-0.53,0.12
2019-11-21 14:23:59.3860,-0.73,-0.15,0.01
2019-11-21 14:23:59.4860,0.05,0.88,-0.06
2019-11-21 14:23:59.5860,2.58,0.98,-0.34
2019-11-21 14:23:59.6860,-3.01,1.53,1.0
2019-11-21 14:23:59.7860,0.19,-0.03,-0.01
2019-11-21 14:23:59.8860,-0.13,0.04,-0.16
2019-11-21 14:23:59.9860,-0.1,0.16,0.07
2019-11-21 14:24:00.0860,-0.29,0.15,-0.02
2019-11-21 14:24:00.1860,-0.84,0.57,0.29
2019-11-21 14:24:00.2860,-1.77,0.41,-0.39
2019-11-21 14:24:00.3860,-1.06,-0.31,-0.03
2019-11-21 14:24:00.4870,-0.61,-0.02,0.02
2019-11-21 14:24:00.5870,0.28,1.14,-0.56
2019-11-21 14:24:00.6870,3.35,0.55,-0.42
2019-11-21 14:24:00.7860,0.72,0.72,-0.18
2019-11-21 14:24:00.8870,0.0,0.11,0.25
2019-11-21 14:24:00.9870,0.01,0.07,-0.0
2019-11-21 14:24:01.0870,-0.19,-0.14,-0.17
2019-11-21 14:24:01.1870,-0.23,0.25,0.14
2019-11-21 14:24:01.2870,-1.64,1.95,-0.61
2019-11-21 14:24:01.3870,-1.03,0.96,-0.55
2019-11-21 14:24:01.4860,-0.76,-0.25,-0.07
2019-11-21 14:24:01.5870,-0.06,0.34,-0.16
2019-11-21 14:24:01.6870,1.82,1.48,-0.57
2019-11-21 14:24:01.7870,-1.69,2.02,1.03
2019-11-21 14:24:01.8870,-0.27,0.25,0.06
2019-11-21 14:24:01.9870,-0.09,0.04,-0.11
2019-11-21 14:24:02.0870,0.01,-0.07,-0.0
2019-11-21 14:24:02.1870,-0.1,0.0,0.04
2019-11-21 14:24:02.2870,-0.68,0.66,0.26
2019-11-21 14:24:02.3870,-2.14,0.58,-0.12
2019-11-21 14:24:02.4870,-1.5,-0.39,0.13
2019-11-21 14:24:02.5880,-0.74,-0.1,0.12
2019-11-21 14:24:02.6870,0.28,1.05,-0.16
2019-11-21 14:24:02.7880,3.07,0.68,-0.66
2019-11-21 14:24:02.8880,-1.95,-0.11,0.76
2019-11-21 14:24:02.9880,-0.1,-0.29,-0.19
2019-11-21 14:24:03.0880,-0.17,-0.03,-0.07
2019-11-21 14:24:03.1880,-0.11,0.03,-0.07
2019-11-21 14:24:03.2880,-0.17,0.32,0.18
2019-11-21 14:24:03.3880,-1.28,0.95,0.43
2019-11-21 14:24:03.4880,-1.03,-0.1,-0.03
2019-11-21 14:24:03.5880,-0.67,-0.1,-0.09
2019-11-21 14:24:03.6880,-0.18,0.26,-0.26
2019-11-21 14:24:03.7880,1.18,1.54,-0.43
2019-11-21 14:24:03.8880,2.36,0.68,-0.43
2019-11-21 14:24:03.9880,1.03,-0.25,-1.2
2019-11-21 14:24:04.0880,0.19,0.15,0.14
2019-11-21 14:24:04.1880,-0.13,0.17,0.05
2019-11-21 14:24:04.2880,-0.14,-0.07,-0.13
2019-11-21 14:24:04.3880,-0.37,0.45,0.34
2019-11-21 14:24:04.4890,-1.81,1.61,0.09
2019-11-21 14:24:04.5880,-1.76,-0.59,0.03
2019-11-21 14:24:04.6890,-0.65,-0.18,-0.25
2019-11-21 14:24:04.7880,0.24,0.69,-0.26
2019-11-21 14:24:04.8890,2.63,0.92,-0.41
2019-11-21 14:24:04.9890,0.41,0.15,0.77
2019-11-21 14:24:05.0890,-0.29,-0.04,-0.02
2019-11-21 14:24:05.1890,0.03,0.04,-0.07
2019-11-21 14:24:05.2890,-0.03,-0.14,-0.08
2019-11-21 14:24:05.3890,-0.2,0.21,0.09
2019-11-21 14:24:05.4890,-1.37,0.98,0.39
2019-11-21 14:24:05.5890,-0.18,0.32,-0.41
2019-11-21 14:24:05.6890,-0.7,-0.13,-0.17
2019-11-21 14:24:05.7890,-0.28,0.19,-0.06
2019-11-21 14:24:05.8890,0.83,1.51,-0.47
2019-11-21 14:24:05.9900,2.92,0.43,-0.46
2019-11-21 14:24:06.0890,1.36,-0.35,-0.86
2019-11-21 14:24:06.1890,0.14,0.1,0.04
2019-11-21 14:24:06.2890,-0.03,0.24,0.13
2019-11-21 14:24:06.3890,-0.16,-0.1,-0.11
2019-11-21 14:24:06.4890,-0.16,0.35,0.34
2019-11-21 14:24:06.5900,-1.56,1.73,-0.56
2019-11-21 14:24:06.6900,-1.4,-0.03,-0.18
2019-11-21 14:24:06.7890,-0.77,-0.31,-0.08
2019-11-21 14:24:06.8900,-0.19,0.39,-0.07
2019-11-21 14:24:06.9900,2.1,1.55,-0.31
2019-11-21 14:24:07.0900,-0.69,1.87,0.57
2019-11-21 14:24:07.1900,0.23,-0.06,-0.67
2019-11-21 14:24:07.2900,0.04,0.12,-0.02
2019-11-21 14:24:07.3900,-0.13,0.01,-0.11
2019-11-21 14:24:07.4900,-0.27,0.13,-0.02
2019-11-21 14:24:07.5900,-0.67,0.65,0.27
2019-11-21 14:24:07.6900,-2.25,0.66,-0.19
2019-11-21 14:24:07.7900,-1.35,-0.45,0.08
2019-11-21 14:24:07.8900,-0.63,0.08,-0.07
2019-11-21 14:24:07.9900,0.16,1.04,-0.49
2019-11-21 14:24:08.0910,3.34,0.61,-0.3
2019-11-21 14:24:08.1900,0.92,0.82,-0.28
2019-11-21 14:24:08.2910,-0.1,-0.05,0.05
2019-11-21 14:24:08.3910,0.09,0.09,-0.0
2019-11-21 14:24:08.4900,-0.03,-0.03,0.05
2019-11-21 14:24:08.5900,-0.23,0.31,0.07
2019-11-21 14:24:08.6900,-1.89,1.99,-0.55
2019-11-21 14:24:08.7910,-1.21,0.42,-0.53
2019-11-21 14:24:08.8910,-0.65,-0.14,-0.04
2019-11-21 14:24:08.9910,-0.06,0.78,-0.14
2019-11-21 14:24:09.0910,2.31,1.21,-0.27
2019-11-21 14:24:09.1910,-1.49,1.71,0.74
2019-11-21 14:24:09.2910,-0.04,0.07,-0.0
2019-11-21 14:24:09.3910,-0.16,0.13,-0.06
2019-11-21 14:24:09.4910,-0.13,0.22,0.02
2019-11-21 14:24:09.5910,-0.24,0.05,-0.13
2019-11-21 14:24:09.6910,-0.65,0.69,0.3
2019-11-21 14:24:09.7910,-2.11,0.62,-0.34
2019-11-21 14:24:09.8910,-1.27,-0.47,-0.01
2019-11-21 14:24:09.9920,-0.58,-0.01,0.04
2019-11-21 14:24:10.0910,0.26,1.37,-0.49
2019-11-21 14:24:10.1910,3.21,0.6,-0.55
2019-11-21 14:24:10.2910,0.75,0.29,-0.54
2019-11-21 14:24:10.3910,-0.08,0.07,0.13
2019-11-21 14:24:10.4910,0.02,0.16,0.04
2019-11-21 14:24:10.5910,-0.16,-0.06,-0.17
2019-11-21 14:24:10.6920,-0.31,0.25,0.17
2019-11-21 14:24:10.7920,-1.55,2.15,-0.44
2019-11-21 14:24:10.8920,-1.93,0.94,-0.28
2019-11-21 14:24:10.9920,-0.86,-0.33,-0.1
2019-11-21 14:24:11.0920,-0.11,0.51,-0.14
2019-11-21 14:24:11.1920,2.43,1.28,-0.44
2019-11-21 14:24:11.2920,-2.3,2.07,1.87
2019-11-21 14:24:11.3920,-0.16,-0.02,0.09
2019-11-21 14:24:11.4920,-0.2,-0.02,-0.22
2019-11-21 14:24:11.5920,-0.08,0.09,0.01
2019-11-21 14:24:11.6920,-0.2,0.14,0.0
2019-11-21 14:24:11.7920,-1.0,0.7,0.3
2019-11-21 14:24:11.8920,-1.09,0.48,-0.47
2019-11-21 14:24:11.9920,-1.02,-0.27,-0.13
2019-11-21 14:24:12.0930,-0.4,0.24,-0.05
2019-11-21 14:24:12.1930,0.59,1.55,-0.43
2019-11-21 14:24:12.2930,3.23,0.36,-0.66
2019-11-21 14:24:12.3920,1.48,0.11,-0.45
2019-11-21 14:24:12.4920,0.19,0.08,0.03
2019-11-21 14:24:12.5920,0.02,0.09,-0.05
2019-11-21 14:24:12.6920,-0.13,-0.13,-0.16
2019-11-21 14:24:12.7930,-0.31,0.45,0.26
2019-11-21 14:24:12.8930,-1.85,1.89,-0.33
2019-11-21 14:24:12.9930,-1.67,-0.31,-0.17
2019-11-21 14:24:13.0930,-0.73,-0.16,-0.07
2019-11-21 14:24:13.1930,0.0,0.65,-0.19
2019-11-21 14:24:13.2930,2.76,1.05,-0.38
2019-11-21 14:24:13.3930,-0.82,0.51,0.61
2019-11-21 14:24:13.4930,0.23,0.16,-0.1
2019-11-21 14:24:13.5930,-0.09,-0.03,-0.12
2019-11-21 14:24:13.6930,-0.05,0.08,-0.03
2019-11-21 14:24:13.7930,-0.27,0.16,-0.06
2019-11-21 14:24:13.8930,-1.0,0.82,0.39
2019-11-21 14:24:13.9930,-0.9,0.68,-0.46
2019-11-21 14:24:14.0930,-0.85,-0.3,-0.15
2019-11-21 14:24:14.1930,-0.37,0.25,-0.09
2019-11-21 14:24:14.2930,0.96,1.31,-0.72
2019-11-21 14:24:14.3940,2.53,0.76,-0.51
2019-11-21 14:24:14.4930,1.19,-0.5,-1.57
2019-11-21 14:24:14.5930,0.47,0.25,-0.05
2019-11-21 14:24:14.6930,0.01,0.03,-0.03
2019-11-21 14:24:14.7940,-0.14,-0.1,-0.17
2019-11-21 14:24:14.8940,-0.27,0.36,0.22
2019-11-21 14:24:14.9940,-1.73,1.91,-0.38
2019-11-21 14:24:15.0940,-1.52,0.22,-0.37
2019-11-21 14:24:15.1940,-0.72,-0.16,-0.12
2019-11-21 14:24:15.2940,-0.11,0.59,-0.19
2019-11-21 14:24:15.3940,2.44,1.19,-0.4
2019-11-21 14:24:15.4940,-1.94,1.89,1.59
2019-11-21 14:24:15.5940,0.08,0.22,0.01
2019-11-21 14:24:15.6940,-0.2,0.02,-0.2
2019-11-21 14:24:15.7940,-0.11,0.15,0.0
2019-11-21 14:24:15.8940,-0.18,0.09,-0.05
2019-11-21 14:24:15.9940,-0.78,0.7,0.29
2019-11-21 14:24:16.0940,-1.85,0.53,-0.61
2019-11-21 14:24:16.1940,-1.2,-0.33,0.01
2019-11-21 14:24:16.2940,-0.54,0.0,0.07
2019-11-21 14:24:16.3950,0.74,1.42,-0.53
2019-11-21 14:24:16.4950,3.28,0.45,-0.87
2019-11-21 14:24:16.5950,1.34,0.63,-0.67
2019-11-21 14:24:16.6940,0.16,0.12,-0.08
2019-11-21 14:24:16.7940,0.04,0.06,-0.09
2019-11-21 14:24:16.8950,-0.14,-0.06,-0.14
2019-11-21 14:24:16.9950,-0.32,0.47,0.2
2019-11-21 14:24:17.0950,-1.63,1.77,-0.48
2019-11-21 14:24:17.1950,-1.6,0.29,-0.34
2019-11-21 14:24:17.2950,-0.72,-0.23,-0.08
2019-11-21 14:24:17.3950,-0.0,0.57,-0.1
2019-11-21 14:24:17.4950,2.84,0.95,-0.27
2019-11-21 14:24:17.5950,-3.35,1.64,1.51
2019-11-21 14:24:17.6950,0.02,-0.2,-0.06
2019-11-21 14:24:17.7950,-0.12,0.02,-0.21
2019-11-21 14:24:17.8950,-0.07,0.11,0.04
2019-11-21 14:24:17.9950,-0.24,0.17,-0.03
2019-11-21 14:24:18.0950,-1.05,0.83,0.39
2019-11-21 14:24:18.1950,-0.9,0.27,-0.3
2019-11-21 14:24:18.2950,-0.66,-0.22,-0.22
2019-11-21 14:24:18.3950,-0.24,0.23,-0.29
2019-11-21 14:24:18.4960,1.01,1.55,-1.16
2019-11-21 14:24:18.5960,2.63,0.47,-0.14
2019-11-21 14:24:18.6960,1.81,-0.08,-0.47
2019-11-21 14:24:18.7960,0.2,0.09,-0.06
2019-11-21 14:24:18.8960,-0.02,0.12,0.01
2019-11-21 14:24:18.9960,-0.11,-0.08,-0.21
2019-11-21 14:24:19.0960,-0.43,0.47,0.16
2019-11-21 14:24:19.1960,-1.74,1.66,-0.37
2019-11-21 14:24:19.2960,-1.46,-0.07,-0.14
2019-11-21 14:24:19.3960,-0.73,-0.23,0.14
2019-11-21 14:24:19.4960,-0.21,0.64,-0.08
2019-11-21 14:24:19.5960,2.58,0.99,-0.62
2019-11-21 14:24:19.6960,-2.2,1.32,1.44
2019-11-21 14:24:19.7960,-0.09,-0.01,-0.07
2019-11-21 14:24:19.8960,-0.22,-0.09,-0.21
2019-11-21 14:24:19.9960,0.02,0.01,-0.02
2019-11-21 14:24:20.0960,-0.17,0.35,0.04
2019-11-21 14:24:20.1960,-1.33,1.24,0.55
2019-11-21 14:24:20.2960,-0.52,0.31,-0.41
2019-11-21 14:24:20.3960,-0.75,-0.24,-0.07
2019-11-21 14:24:20.4960,-0.36,0.17,-0.07
2019-11-21 14:24:20.5970,1.25,1.68,-0.96
2019-11-21 14:24:20.6960,2.16,0.79,-0.18
2019-11-21 14:24:20.7960,0.29,0.29,0.03
2019-11-21 14:24:20.8970,-0.06,0.12,0.01
2019-11-21 14:24:20.9970,-0.14,0.12,-0.07
2019-11-21 14:24:21.0970,-0.23,0.01,-0.11
2019-11-21 14:24:21.1970,-0.63,0.69,0.28
2019-11-21 14:24:21.2970,-2.2,0.46,-0.39
2019-11-21 14:24:21.3970,-1.33,-0.34,0.04
2019-11-21 14:24:21.4970,-0.59,-0.13,-0.04
2019-11-21 14:24:21.5970,0.14,1.46,-0.6
2019-11-21 14:24:21.6970,3.52,0.55,-0.95
2019-11-21 14:24:21.7970,0.72,1.0,-0.12
2019-11-21 14:24:21.8970,0.11,-0.08,-0.09
2019-11-21 14:24:21.9970,-0.04,0.01,-0.16
2019-11-21 14:24:22.0970,0.01,-0.15,-0.12
2019-11-21 14:24:22.1970,-0.27,0.5,0.13
2019-11-21 14:24:22.2980,-1.9,1.7,-0.55
2019-11-21 14:24:22.3980,0.29,0.2,-0.52
2019-11-21 14:24:22.4970,-0.66,-0.16,-0.14
2019-11-21 14:24:22.5980,0.11,0.7,-0.29
2019-11-21 14:24:22.6980,2.5,1.17,-0.36
2019-11-21 14:24:22.7970,-2.25,2.19,1.57
2019-11-21 14:24:22.8980,-0.02,0.05,-0.1
2019-11-21 14:24:22.9980,-0.16,-0.05,-0.15
2019-11-21 14:24:23.0980,-0.0,0.09,-0.0
2019-11-21 14:24:23.1980,-0.17,0.09,-0.09
2019-11-21 14:24:23.2980,-0.86,0.74,0.35
2019-11-21 14:24:23.3980,-1.18,0.57,-0.36
2019-11-21 14:24:23.4980,-1.02,-0.39,-0.08
2019-11-21 14:24:23.5980,-0.66,0.04,-0.37
2019-11-21 14:24:23.6980,0.15,1.64,-0.91
2019-11-21 14:24:23.7980,3.18,0.39,-0.51
2019-11-21 14:24:23.8980,1.37,0.56,-0.58
2019-11-21 14:24:23.9980,0.27,0.09,-0.13
2019-11-21 14:24:24.0990,0.09,0.07,-0.03
2019-11-21 14:24:24.1980,-0.02,-0.07,-0.14
2019-11-21 14:24:24.2980,-0.25,0.47,0.17
2019-11-21 14:24:24.3990,-1.58,1.53,-0.44
2019-11-21 14:24:24.4990,-1.47,-0.51,-0.23
2019-11-21 14:24:24.5980,-0.61,-0.22,-0.18
2019-11-21 14:24:24.6980,-0.06,0.59,-0.07
2019-11-21 14:24:24.7990,2.71,1.0,-0.57
2019-11-21 14:24:24.8990,0.56,-0.21,0.94
2019-11-21 14:24:24.9990,-0.07,-0.12,-0.11
2019-11-21 14:24:25.0990,-0.13,-0.08,-0.22
2019-11-21 14:24:25.1990,-0.11,0.04,-0.19
2019-11-21 14:24:25.2990,-0.21,0.12,-0.03
2019-11-21 14:24:25.3990,-1.24,1.1,0.59
2019-11-21 14:24:25.4990,-0.25,0.06,-0.29
2019-11-21 14:24:25.5990,-0.76,-0.38,-0.2
2019-11-21 14:24:25.6990,-0.39,0.31,-0.19
2019-11-21 14:24:25.7990,1.19,1.46,-0.72
2019-11-21 14:24:25.8990,2.34,0.78,-0.36
2019-11-21 14:24:25.9990,1.14,-0.15,-0.43
2019-11-21 14:24:26.0990,0.23,0.17,-0.01
2019-11-21 14:24:26.1990,-0.03,0.08,-0.06
2019-11-21 14:24:26.2990,-0.16,-0.02,-0.11
2019-11-21 14:24:26.3990,-0.4,0.47,0.15
2019-11-21 14:24:26.5000,-1.62,1.42,0.08
2019-11-21 14:24:26.6000,-1.62,-0.63,0.11
2019-11-21 14:24:26.7000,-0.62,-0.2,-0.14
2019-11-21 14:24:26.8000,0.05,0.98,-0.34
2019-11-21 14:24:26.9000,3.13,0.8,-0.53
2019-11-21 14:24:27.0000,0.46,0.31,-0.04
2019-11-21 14:24:27.1000,-0.26,-0.07,-0.14
2019-11-21 14:24:27.2000,-0.04,-0.02,-0.15
2019-11-21 14:24:27.3000,-0.14,0.11,-0.09
2019-11-21 14:24:27.4000,-0.23,0.03,0.01
2019-11-21 14:24:27.5000,-1.89,1.89,-0.22
2019-11-21 14:24:27.6000,-0.18,0.64,-0.49
2019-11-21 14:24:27.7000,-0.64,-0.24,-0.16
2019-11-21 14:24:27.8000,-0.24,0.28,-0.16
2019-11-21 14:24:27.9010,2.05,1.88,-0.85
2019-11-21 14:24:28.0000,0.13,1.33,0.91
2019-11-21 14:24:28.1000,0.15,0.14,-0.03
2019-11-21 14:24:28.2000,0.02,0.05,-0.02
2019-11-21 14:24:28.3000,-0.06,0.07,-0.11
2019-11-21 14:24:28.4000,-0.19,0.1,-0.11
2019-11-21 14:24:28.5000,-0.63,0.66,0.21
2019-11-21 14:24:28.6000,-2.21,0.57,-0.15
2019-11-21 14:24:28.7010,-1.46,-0.41,0.07
2019-11-21 14:24:28.8010,-0.63,-0.16,-0.04
2019-11-21 14:24:28.9010,0.11,1.38,-0.51
2019-11-21 14:24:29.0010,3.24,0.34,-0.51
2019-11-21 14:24:29.1010,0.97,0.44,-0.61
2019-11-21 14:24:29.2010,-0.05,0.04,-0.11
2019-11-21 14:24:29.3010,-0.1,-0.04,-0.13
2019-11-21 14:24:29.4010,-0.15,0.07,-0.14
2019-11-21 14:24:29.5010,-0.36,0.38,-0.01
2019-11-21 14:24:29.6020,-1.83,1.55,-0.38
2019-11-21 14:24:29.7010,-1.36,0.33,-0.41
2019-11-21 14:24:29.8010,-0.72,-0.2,-0.12
2019-11-21 14:24:29.9010,-0.06,0.66,-0.06
2019-11-21 14:24:30.0020,2.64,1.07,-0.54
2019-11-21 14:24:30.1010,-0.46,0.26,0.78
2019-11-21 14:24:30.2010,-0.28,-0.17,-0.2
2019-11-21 14:24:30.3010,-0.09,-0.02,-0.14
2019-11-21 14:24:30.4020,0.01,0.01,-0.09
2019-11-21 14:24:30.5010,-0.09,0.21,0.15
2019-11-21 14:24:30.6010,-1.22,0.99,0.42
2019-11-21 14:24:30.7010,-0.58,0.77,-0.21
2019-11-21 14:24:30.8020,-0.94,-0.32,-0.23
2019-11-21 14:24:30.9020,-0.31,0.21,-0.11
2019-11-21 14:24:31.0020,1.33,1.33,-0.31
2019-11-21 14:24:31.1020,2.76,0.49,-0.31
2019-11-21 14:24:31.2020,1.56,-0.05,-0.9
2019-11-21 14:24:31.3020,0.27,0.18,-0.04
2019-11-21 14:24:31.4020,0.02,0.05,-0.05
2019-11-21 14:24:31.5020,-0.14,0.03,-0.13
2019-11-21 14:24:31.6020,-0.4,0.39,0.19
2019-11-21 14:24:31.7020,-1.45,1.38,-0.24
2019-11-21 14:24:31.8020,-1.54,-0.54,-0.07
2019-11-21 14:24:31.9020,-0.58,-0.29,-0.24
2019-11-21 14:24:32.0020,0.04,0.71,-0.22
2019-11-21 14:24:32.1020,2.76,0.83,-0.4
2019-11-21 14:24:32.2020,-0.38,0.69,1.07
2019-11-21 14:24:32.3020,-0.06,0.03,-0.01
2019-11-21 14:24:32.4020,-0.18,-0.07,-0.27
2019-11-21 14:24:32.5030,-0.15,0.11,-0.1
2019-11-21 14:24:32.6020,-0.2,0.19,-0.05
2019-11-21 14:24:32.7020,-1.14,0.91,0.44
2019-11-21 14:24:32.8030,-0.24,0.38,-0.43
2019-11-21 14:24:32.9030,-0.67,-0.24,-0.24
2019-11-21 14:24:33.0030,-0.26,0.3,-0.18
2019-11-21 14:24:33.1030,0.96,1.47,-0.32
2019-11-21 14:24:33.2030,2.82,0.43,-0.31
2019-11-21 14:24:33.3030,1.49,0.06,-0.52
2019-11-21 14:24:33.4030,0.28,0.15,-0.02
2019-11-21 14:24:33.5030,-0.04,-0.0,-0.12
2019-11-21 14:24:33.6030,-0.01,0.08,-0.01
2019-11-21 14:24:33.7030,-0.42,0.4,0.11
2019-11-21 14:24:33.8040,-1.62,1.6,-0.31
2019-11-21 14:24:33.9030,-1.48,-0.34,-0.28
2019-11-21 14:24:34.0030,-0.63,-0.23,-0.15
2019-11-21 14:24:34.1030,-0.04,0.43,-0.2
2019-11-21 14:24:34.2040,2.19,1.33,-0.56
2019-11-21 14:24:34.3030,-1.56,1.5,1.7
2019-11-21 14:24:34.4030,0.05,-0.12,-0.31
2019-11-21 14:24:34.5030,0.1,0.1,-0.09
2019-11-21 14:24:34.6030,0.01,0.06,-0.05
2019-11-21 14:24:34.7030,-0.18,0.14,-0.05
2019-11-21 14:24:34.8040,-0.71,0.69,0.28
2019-11-21 14:24:34.9040,-1.79,0.49,-0.46
2019-11-21 14:24:35.0040,-1.27,-0.48,-0.02
2019-11-21 14:24:35.1040,-0.54,-0.21,-0.02
2019-11-21 14:24:35.2040,0.02,1.34,-0.36
2019-11-21 14:24:35.3040,2.96,0.31,-0.92
2019-11-21 14:24:35.4040,0.64,0.07,-0.87
2019-11-21 14:24:35.5040,0.04,0.06,0.23
2019-11-21 14:24:35.6040,0.04,0.09,-0.09
2019-11-21 14:24:35.7040,0.0,-0.07,-0.08
2019-11-21 14:24:35.8040,-0.2,0.22,0.06
2019-11-21 14:24:35.9050,-1.59,1.69,0.24
2019-11-21 14:24:36.0040,-0.51,0.79,-0.43
2019-11-21 14:24:36.1040,-0.67,-0.2,-0.14
2019-11-21 14:24:36.2040,-0.11,0.31,-0.02
2019-11-21 14:24:36.3040,1.85,1.67,-1.08
2019-11-21 14:24:36.4050,-0.81,1.93,1.33
2019-11-21 14:24:36.5040,0.34,0.43,0.1
2019-11-21 14:24:36.6040,0.05,0.05,0.02
2019-11-21 14:24:36.7050,-0.02,0.12,0.06
2019-11-21 14:24:36.8050,-0.08,0.0,-0.17
2019-11-21 14:24:36.9050,-0.38,0.59,0.27
2019-11-21 14:24:37.0050,-1.93,1.3,0.27
2019-11-21 14:24:37.1050,-1.58,-0.46,0.17
2019-11-21 14:24:37.2050,-0.64,-0.26,-0.13
2019-11-21 14:24:37.3050,0.14,0.85,-0.39
2019-11-21 14:24:37.4060,3.04,0.77,-0.65
2019-11-21 14:24:37.5050,0.85,-0.52,0.5
2019-11-21 14:24:37.6050,-0.08,-0.04,-0.3
2019-11-21 14:24:37.7050,-0.11,-0.13,-0.22
2019-11-21 14:24:37.8050,-0.06,0.08,-0.08
2019-11-21 14:24:37.9050,-0.23,0.1,-0.04
2019-11-21 14:24:38.0060,-1.91,1.65,0.47
2019-11-21 14:24:38.1050,-0.3,0.55,-0.25
2019-11-21 14:24:38.2050,-0.7,-0.22,-0.11
2019-11-21 14:24:38.3050,-0.22,0.23,-0.05
2019-11-21 14:24:38.4060,1.84,1.9,-0.99
2019-11-21 14:24:38.5050,1.58,1.13,-0.22
2019-11-21 14:24:38.6050,0.13,0.46,0.18
2019-11-21 14:24:38.7060,0.02,0.12,-0.04
2019-11-21 14:24:38.8060,-0.06,0.15,0.01
2019-11-21 14:24:38.9060,-0.18,0.03,-0.2
2019-11-21 14:24:39.0060,-0.59,0.63,0.24
2019-11-21 14:24:39.1060,-2.04,0.87,0.11
2019-11-21 14:24:39.2060,-1.33,-0.39,0.07
2019-11-21 14:24:39.3060,-0.54,-0.23,-0.13
2019-11-21 14:24:39.4060,-0.01,0.84,-0.26
2019-11-21 14:24:39.5070,3.61,0.81,-0.54
2019-11-21 14:24:39.6060,0.88,-0.19,0.4
2019-11-21 14:24:39.7060,-0.09,-0.03,-0.1
2019-11-21 14:24:39.8060,-0.03,0.0,-0.22
2019-11-21 14:24:39.9060,0.06,-0.06,-0.07
2019-11-21 14:24:40.0060,-0.19,0.11,-0.03
2019-11-21 14:24:40.1060,-1.58,1.55,0.61
2019-11-21 14:24:40.2060,-0.38,-0.1,-0.27
2019-11-21 14:24:40.3060,-0.66,-0.21,-0.16
2019-11-21 14:24:40.4060,-0.3,0.14,-0.23
2019-11-21 14:24:40.5070,1.13,1.61,-0.59
2019-11-21 14:24:40.6070,2.82,0.48,-0.47
2019-11-21 14:24:40.7070,1.49,0.06,-1.12
2019-11-21 14:24:40.8070,0.22,0.19,-0.02
2019-11-21 14:24:40.9070,-0.01,0.06,-0.1
2019-11-21 14:24:41.0070,-0.15,-0.06,-0.16
2019-11-21 14:24:41.1070,-0.38,0.43,0.18
2019-11-21 14:24:41.2070,-1.44,1.39,-0.22
2019-11-21 14:24:41.3070,-1.41,-0.62,0.06
2019-11-21 14:24:41.4070,-0.68,-0.34,-0.21
2019-11-21 14:24:41.5070,0.0,0.61,-0.26
2019-11-21 14:24:41.6070,3.02,0.8,-0.7
2019-11-21 14:24:41.7070,-1.31,1.07,1.17
2019-11-21 14:24:41.8080,-0.05,-0.03,-0.1
2019-11-21 14:24:41.9070,-0.13,-0.06,-0.24
2019-11-21 14:24:42.0070,-0.14,0.08,-0.08
2019-11-21 14:24:42.1070,-0.08,0.22,-0.01
2019-11-21 14:24:42.2070,-0.74,0.56,0.23
2019-11-21 14:24:42.3070,-1.75,0.41,-0.21
2019-11-21 14:24:42.4070,-1.17,-0.41,0.04
2019-11-21 14:24:42.5080,-0.55,-0.15,-0.1
2019-11-21 14:24:42.6080,-0.01,1.12,-0.11
2019-11-21 14:24:42.7080,3.28,0.61,-0.66
2019-11-21 14:24:42.8080,0.84,0.42,-0.51
2019-11-21 14:24:42.9080,0.13,0.18,0.05
2019-11-21 14:24:43.0080,0.04,0.05,-0.09
2019-11-21 14:24:43.1080,0.01,-0.07,-0.13
2019-11-21 14:24:43.2080,-0.09,0.11,0.02
2019-11-21 14:24:43.3080,-1.21,0.91,0.37
2019-11-21 14:24:43.4080,-0.61,0.49,-0.45
2019-11-21 14:24:43.5080,-0.63,-0.35,-0.18
2019-11-21 14:24:43.6080,-0.39,-0.02,0.02
2019-11-21 14:24:43.7080,0.49,1.52,-0.28
2019-11-21 14:24:43.8080,3.39,0.43,-0.25
2019-11-21 14:24:43.9080,1.62,0.12,-1.1
2019-11-21 14:24:44.0080,0.27,0.16,-0.05
2019-11-21 14:24:44.1080,0.03,0.05,-0.09
2019-11-21 14:24:44.2080,-0.0,-0.02,-0.07
2019-11-21 14:24:44.3080,-0.23,0.29,-0.01
2019-11-21 14:24:44.4090,-1.39,1.48,0.38
2019-11-21 14:24:44.5090,-0.44,-0.03,-0.34
2019-11-21 14:24:44.6090,-0.52,-0.24,0.02
2019-11-21 14:24:44.7090,-0.37,0.07,0.25
2019-11-21 14:24:44.8090,1.0,1.88,-0.19
2019-11-21 14:24:44.9090,2.87,0.42,-0.42
2019-11-21 14:24:45.0090,1.55,-0.11,-0.79
2019-11-21 14:24:45.1090,0.24,0.12,0.04
2019-11-21 14:24:45.2090,0.03,0.05,-0.03
2019-11-21 14:24:45.3090,0.05,-0.02,-0.08
2019-11-21 14:24:45.4090,-0.02,0.09,0.02
2019-11-21 14:24:45.5090,-1.12,1.26,0.36
2019-11-21 14:24:45.6090,-0.77,0.09,-0.07
2019-11-21 14:24:45.7090,-0.66,-0.44,-0.13
2019-11-21 14:24:45.8090,-0.54,-0.08,-0.29
2019-11-21 14:24:45.9100,0.22,1.38,-0.69
2019-11-21 14:24:46.0100,3.0,0.42,-0.66
2019-11-21 14:24:46.1100,1.53,0.89,-1.04
2019-11-21 14:24:46.2090,0.26,0.24,-0.19
2019-11-21 14:24:46.3090,0.06,-0.01,-0.09
2019-11-21 14:24:46.4100,0.02,0.01,-0.08
2019-11-21 14:24:46.5100,0.05,0.03,-0.03
2019-11-21 14:24:46.6100,0.0,0.35,0.07
2019-11-21 14:24:46.7100,-1.1,1.01,0.41
2019-11-21 14:24:46.8090,-1.22,-0.42,-0.05
2019-11-21 14:24:46.9100,-0.68,-0.48,-0.37
2019-11-21 14:24:47.0100,-0.12,0.21,-0.76
2019-11-21 14:24:47.1100,0.79,1.07,-0.56
2019-11-21 14:24:47.2100,1.79,0.25,-0.08
2019-11-21 14:24:47.3100,-2.77,-0.68,0.66
2019-11-21 14:24:47.4100,0.04,0.02,0.15
2019-11-21 14:24:47.5100,0.08,0.03,-0.06
2019-11-21 14:24:47.6100,-0.01,-0.04,-0.04
2019-11-21 14:24:47.7100,0.01,-0.08,-0.13
2019-11-21 14:24:47.8100,0.07,-0.0,-0.09
2019-11-21 14:24:47.9100,-0.01,-0.05,-0.16
2019-11-21 14:24:48.0100,0.05,-0.04,-0.09
2019-11-21 14:24:48.1100,0.13,0.07,-0.03
2019-11-21 14:24:48.2100,0.09,0.04,-0.07
2019-11-21 14:24:48.3100,-0.06,-0.08,-0.04
2019-11-21 14:24:48.4100,0.06,-0.05,-0.03
2019-11-21 14:24:48.5110,0.03,0.1,-0.04
2019-11-21 14:24:48.6110,0.02,-0.0,-0.04
2019-11-21 14:24:48.7110,0.01,-0.06,-0.07
2019-11-21 14:24:48.8110,0.02,0.01,-0.01
2019-11-21 14:24:48.9110,0.03,0.02,-0.01
2019-11-21 14:24:49.0110,-0.01,0.0,-0.03
2019-11-21 14:24:49.1110,-0.01,-0.03,-0.05
2019-11-21 14:24:49.2110,0.01,-0.01,-0.04
2019-11-21 14:24:49.3110,0.02,0.01,-0.01
2019-11-21 14:24:49.4110,0.0,-0.01,-0.03
2019-11-21 14:24:49.5110,0.01,0.0,-0.02
2019-11-21 14:24:49.6110,0.02,-0.0,-0.03
2019-11-21 14:24:49.7110,0.0,0.0,-0.02
2019-11-21 14:24:49.8110,0.0,-0.01,-0.02
2019-11-21 14:24:49.9120,0.01,-0.0,-0.02
2019-11-21 14:24:50.0110,0.01,0.01,-0.01
2019-11-21 14:24:50.1110,0.03,0.03,-0.0
