time,ax,ay,az
2019-11-21 14:26:37.5710,0.01,0.0,-0.01
2019-11-21 14:26:37.6710,0.01,-0.0,-0.0
2019-11-21 14:26:37.7720,-0.01,0.0,-0.01
2019-11-21 14:26:37.8710,-0.0,-0.0,-0.0
2019-11-21 14:26:37.9720,-0.0,-0.0,-0.01
2019-11-21 14:26:38.0720,-0.0,-0.0,-0.01
2019-11-21 14:26:38.1720,0.01,0.01,-0.0
2019-11-21 14:26:38.2720,0.01,0.01,-0.03
2019-11-21 14:26:38.3720,-0.05,-0.02,-0.0
2019-11-21 14:26:38.4720,-0.0,-0.03,-0.07
2019-11-21 14:26:38.5720,-0.02,-0.04,0.05
2019-11-21 14:26:38.6720,-0.04,-0.07,0.01
2019-11-21 14:26:38.7720,-0.53,0.1,0.24
2019-11-21 14:26:38.8720,0.65,0.16,-0.07
2019-11-21 14:26:38.9720,0.02,0.01,-0.01
2019-11-21 14:26:39.0730,0.02,0.09,0.09
2019-11-21 14:26:39.1730,-0.04,-0.11,-0.13
2019-11-21 14:26:39.2730,-0.04,0.02,0.01
2019-11-21 14:26:39.3730,0.04,0.04,-0.03
2019-11-21 14:26:39.4730,0.14,0.16,-0.52
2019-11-21 14:26:39.5730,0.15,0.08,-0.24
2019-11-21 14:26:39.6730,-0.65,-0.03,-0.03
2019-11-21 14:26:39.7730,-0.83,-0.23,-0.07
2019-11-21 14:26:39.8730,-0.3,0.0,0.13
2019-11-21 14:26:39.9730,0.19,0.18,0.25
2019-11-21 14:26:40.0730,1.88,0.79,-0.12
2019-11-21 14:26:40.1740,0.11,0.23,0.27
2019-11-21 14:26:40.2730,0.0,0.13,0.07
2019-11-21 14:26:40.3730,-0.08,0.02,-0.15
2019-11-21 14:26:40.4740,-0.04,-0.01,-0.09
2019-11-21 14:26:40.5740,-0.27,0.18,0.23
2019-11-21 14:26:40.6740,-1.25,1.12,0.11
2019-11-21 14:26:40.7740,-0.81,0.33,-0.28
2019-11-21 14:26:40.8740,-0.68,-0.22,-0.36
2019-11-21 14:26:40.9740,-0.01,0.43,-0.29
2019-11-21 14:26:41.0740,1.94,1.78,-0.75
2019-11-21 14:26:41.1740,1.77,1.09,0.98
2019-11-21 14:26:41.2740,-0.27,0.6,0.27
2019-11-21 14:26:41.3740,-0.35,-0.09,-0.15
2019-11-21 14:26:41.4740,0.02,-0.09,0.05
2019-11-21 14:26:41.5740,-0.22,0.29,0.14
2019-11-21 14:26:41.6740,-1.52,0.89,0.42
2019-11-21 14:26:41.7740,-0.69,0.15,-0.37
2019-11-21 14:26:41.8740,-0.7,-0.31,-0.37
2019-11-21 14:26:41.9750,-0.28,0.33,-0.38
2019-11-21 14:26:42.0750,1.2,1.87,-0.62
2019-11-21 14:26:42.1740,2.48,0.5,0.18
2019-11-21 14:26:42.2750,1.84,-0.08,0.09
2019-11-21 14:26:42.3750,0.18,0.2,0.21
2019-11-21 14:26:42.4750,0.07,0.09,0.15
2019-11-21 14:26:42.5750,-0.03,-0.05,-0.11
2019-11-21 14:26:42.6750,-0.43,0.49,0.28
2019-11-21 14:26:42.7750,-1.67,1.37,-0.0
2019-11-21 14:26:42.8750,-1.59,-0.57,-0.06
2019-11-21 14:26:42.9750,-0.43,-0.2,-0.28
2019-11-21 14:26:43.0750,0.0,1.05,-0.49
2019-11-21 14:26:43.1750,2.76,0.91,-0.16
2019-11-21 14:26:43.2750,0.51,0.39,0.39
2019-11-21 14:26:43.3750,-0.47,-0.1,-0.07
2019-11-21 14:26:43.4760,-0.09,-0.02,-0.05
2019-11-21 14:26:43.5760,0.03,-0.01,-0.02
2019-11-21 14:26:43.6760,-0.15,0.08,0.13
2019-11-21 14:26:43.7760,-1.77,1.42,0.03
2019-11-21 14:26:43.8760,-0.14,0.2,-0.66
2019-11-21 14:26:43.9760,-0.57,-0.43,-0.28
2019-11-21 14:26:44.0760,-0.26,0.33,-0.11
2019-11-21 14:26:44.1760,1.61,1.84,-0.3
2019-11-21 14:26:44.2760,2.1,0.96,-0.17
2019-11-21 14:26:44.3760,1.79,0.25,-0.12
2019-11-21 14:26:44.4760,0.32,0.22,0.05
2019-11-21 14:26:44.5760,-0.08,0.03,-0.12
2019-11-21 14:26:44.6760,-0.17,0.05,0.01
2019-11-21 14:26:44.7760,-0.36,0.47,0.27
2019-11-21 14:26:44.8760,-1.63,1.42,-0.47
2019-11-21 14:26:44.9770,-1.4,-0.64,-0.22
2019-11-21 14:26:45.0770,-0.42,-0.12,-0.13
2019-11-21 14:26:45.1770,-0.08,0.36,-0.22
2019-11-21 14:26:45.2770,2.03,1.51,-0.16
2019-11-21 14:26:45.3770,-1.1,1.33,0.46
2019-11-21 14:26:45.4770,-0.13,0.51,0.12
2019-11-21 14:26:45.5770,-0.14,0.07,-0.01
2019-11-21 14:26:45.6770,0.03,-0.05,-0.03
2019-11-21 14:26:45.7770,-0.14,0.13,0.04
2019-11-21 14:26:45.8770,-0.89,0.65,0.41
2019-11-21 14:26:45.9770,-1.52,0.52,-0.21
2019-11-21 14:26:46.0770,-1.07,-0.44,-0.05
2019-11-21 14:26:46.1770,-0.47,-0.23,-0.12
2019-11-21 14:26:46.2770,0.22,1.65,-0.17
2019-11-21 14:26:46.3770,3.91,0.59,-0.3
2019-11-21 14:26:46.4780,2.13,0.21,-1.58
2019-11-21 14:26:46.5780,0.45,0.24,-0.05
2019-11-21 14:26:46.6780,-0.0,0.03,-0.13
2019-11-21 14:26:46.7780,-0.08,0.07,-0.02
2019-11-21 14:26:46.8780,-0.39,0.49,0.31
2019-11-21 14:26:46.9780,-1.47,1.3,-0.4
2019-11-21 14:26:47.0780,-1.56,-0.74,-0.04
2019-11-21 14:26:47.1780,-0.49,-0.13,-0.23
2019-11-21 14:26:47.2780,-0.12,0.82,-0.3
2019-11-21 14:26:47.3780,2.87,0.97,-0.21
2019-11-21 14:26:47.4780,0.48,0.25,0.36
2019-11-21 14:26:47.5790,-0.01,-0.04,-0.1
2019-11-21 14:26:47.6790,-0.03,0.06,-0.05
2019-11-21 14:26:47.7790,-0.05,-0.2,-0.11
2019-11-21 14:26:47.8790,-0.23,0.13,0.15
2019-11-21 14:26:47.9790,-1.8,1.52,0.04
2019-11-21 14:26:48.0790,-0.53,0.15,-0.29
2019-11-21 14:26:48.1790,-0.76,-0.43,-0.25
2019-11-21 14:26:48.2790,-0.2,0.35,-0.24
2019-11-21 14:26:48.3790,2.02,1.85,-0.45
2019-11-21 14:26:48.4790,0.27,1.46,0.91
2019-11-21 14:26:48.5790,-0.16,0.24,0.38
2019-11-21 14:26:48.6790,-0.24,0.02,-0.16
2019-11-21 14:26:48.7790,-0.04,0.07,0.07
2019-11-21 14:26:48.8790,-0.1,0.11,0.02
2019-11-21 14:26:48.9790,-0.8,0.53,0.22
2019-11-21 14:26:49.0790,-2.3,0.33,-0.19
2019-11-21 14:26:49.1790,-1.26,-0.46,-0.02
2019-11-21 14:26:49.2790,-0.55,-0.08,-0.1
2019-11-21 14:26:49.3790,0.41,1.29,-0.43
2019-11-21 14:26:49.4790,2.62,0.59,-0.15
2019-11-21 14:26:49.5800,0.9,-0.38,-0.83
2019-11-21 14:26:49.6800,0.38,0.13,0.15
2019-11-21 14:26:49.7800,-0.08,0.16,0.14
2019-11-21 14:26:49.8800,-0.18,-0.04,-0.15
2019-11-21 14:26:49.9800,-0.3,0.34,0.29
2019-11-21 14:26:50.0800,-1.96,1.25,-0.04
2019-11-21 14:26:50.1800,-1.61,-0.62,-0.05
2019-11-21 14:26:50.2800,-0.64,-0.28,0.03
2019-11-21 14:26:50.3810,-0.07,0.79,-0.23
2019-11-21 14:26:50.4800,2.93,1.06,-0.03
2019-11-21 14:26:50.5800,1.28,0.21,0.56
2019-11-21 14:26:50.6800,-0.05,0.0,-0.02
2019-11-21 14:26:50.7810,-0.03,0.03,-0.12
2019-11-21 14:26:50.8810,-0.14,-0.12,-0.09
2019-11-21 14:26:50.9810,-0.25,0.06,0.09
2019-11-21 14:26:51.0810,-1.57,1.43,0.04
2019-11-21 14:26:51.1810,0.01,0.1,-0.76
2019-11-21 14:26:51.2810,-0.76,-0.39,-0.19
2019-11-21 14:26:51.3810,-0.35,0.25,0.25
2019-11-21 14:26:51.4810,1.68,1.78,-0.47
2019-11-21 14:26:51.5810,1.64,1.05,0.19
2019-11-21 14:26:51.6810,0.11,0.47,0.11
2019-11-21 14:26:51.7810,-0.17,0.03,-0.14
2019-11-21 14:26:51.8810,0.0,0.11,0.12
2019-11-21 14:26:51.9820,-0.15,0.0,-0.15
2019-11-21 14:26:52.0810,-0.68,0.56,0.28
2019-11-21 14:26:52.1810,-2.26,0.57,-0.11
2019-11-21 14:26:52.2820,-1.65,-0.67,0.15
2019-11-21 14:26:52.3820,-0.54,-0.25,-0.11
2019-11-21 14:26:52.4820,0.14,1.12,-0.43
2019-11-21 14:26:52.5810,3.11,0.93,-0.16
2019-11-21 14:26:52.6820,0.93,0.42,-1.45
2019-11-21 14:26:52.7820,0.26,0.13,-0.08
2019-11-21 14:26:52.8820,-0.08,0.08,-0.05
2019-11-21 14:26:52.9820,-0.09,-0.06,-0.16
2019-11-21 14:26:53.0820,-0.36,0.33,0.15
2019-11-21 14:26:53.1820,-1.77,1.82,-0.43
2019-11-21 14:26:53.2820,-1.36,0.11,-0.64
2019-11-21 14:26:53.3820,-0.57,-0.13,-0.23
2019-11-21 14:26:53.4820,-0.05,0.54,0.01
2019-11-21 14:26:53.5820,2.56,1.32,-0.26
2019-11-21 14:26:53.6820,-1.16,1.39,1.13
2019-11-21 14:26:53.7830,-0.53,-0.06,0.15
2019-11-21 14:26:53.8830,-0.12,-0.01,-0.19
2019-11-21 14:26:53.9820,-0.06,-0.09,-0.13
2019-11-21 14:26:54.0830,-0.22,0.13,0.12
2019-11-21 14:26:54.1830,-1.4,1.13,0.32
2019-11-21 14:26:54.2830,-0.36,0.51,-0.19
2019-11-21 14:26:54.3830,-0.88,-0.43,-0.17
2019-11-21 14:26:54.4830,-0.36,0.1,-0.12
2019-11-21 14:26:54.5830,0.75,1.99,-0.84
2019-11-21 14:26:54.6830,2.22,1.23,0.98
2019-11-21 14:26:54.7830,-0.14,0.15,-0.0
2019-11-21 14:26:54.8830,-0.23,0.06,-0.16
2019-11-21 14:26:54.9830,-0.09,0.07,0.0
2019-11-21 14:26:55.0830,0.07,0.03,-0.07
2019-11-21 14:26:55.1830,-0.65,0.47,0.25
2019-11-21 14:26:55.2830,-2.06,0.26,-0.34
2019-11-21 14:26:55.3830,-1.46,-0.49,0.09
2019-11-21 14:26:55.4830,-0.58,-0.26,0.0
2019-11-21 14:26:55.5840,0.44,1.26,-0.14
2019-11-21 14:26:55.6830,3.09,0.67,-0.4
2019-11-21 14:26:55.7840,0.01,0.61,-0.14
2019-11-21 14:26:55.8840,0.2,0.05,-0.16
2019-11-21 14:26:55.9840,-0.05,-0.02,-0.14
2019-11-21 14:26:56.0840,-0.04,-0.06,-0.05
2019-11-21 14:26:56.1840,-0.29,0.19,0.08
2019-11-21 14:26:56.2840,-1.51,1.45,0.01
2019-11-21 14:26:56.3840,-0.95,0.39,-0.19
2019-11-21 14:26:56.4840,-0.79,-0.36,-0.23
2019-11-21 14:26:56.5840,-0.31,0.26,-0.3
2019-11-21 14:26:56.6840,1.74,1.56,-0.67
2019-11-21 14:26:56.7840,2.43,0.69,0.96
2019-11-21 14:26:56.8840,-0.29,0.46,-0.03
2019-11-21 14:26:56.9840,-0.23,0.05,-0.13
2019-11-21 14:26:57.0850,-0.01,0.03,0.04
2019-11-21 14:26:57.1850,-0.09,0.01,-0.13
2019-11-21 14:26:57.2850,-0.82,0.61,0.35
2019-11-21 14:26:57.3840,-1.79,0.36,-0.3
2019-11-21 14:26:57.4850,-1.2,-0.42,-0.07
2019-11-21 14:26:57.5850,-0.44,-0.3,-0.26
2019-11-21 14:26:57.6850,0.03,1.64,-0.76
2019-11-21 14:26:57.7850,3.11,0.84,-0.31
2019-11-21 14:26:57.8850,1.13,0.37,-1.63
2019-11-21 14:26:57.9850,0.41,0.12,-0.2
2019-11-21 14:26:58.0850,0.04,0.1,-0.07
2019-11-21 14:26:58.1850,-0.16,-0.09,-0.17
2019-11-21 14:26:58.2850,-0.29,0.25,0.11
2019-11-21 14:26:58.3850,-1.82,1.72,-0.43
2019-11-21 14:26:58.4850,-0.31,0.4,-0.63
2019-11-21 14:26:58.5850,-0.67,-0.35,-0.25
2019-11-21 14:26:58.6860,-0.27,0.47,-0.23
2019-11-21 14:26:58.7850,2.19,1.59,-0.63
2019-11-21 14:26:58.8850,-0.31,1.2,1.05
2019-11-21 14:26:58.9860,-0.43,0.21,-0.02
2019-11-21 14:26:59.0860,-0.3,-0.0,-0.23
2019-11-21 14:26:59.1860,-0.11,0.04,0.02
2019-11-21 14:26:59.2860,-0.33,0.08,-0.11
2019-11-21 14:26:59.3860,-0.94,0.55,0.31
2019-11-21 14:26:59.4860,-1.63,0.79,-0.29
2019-11-21 14:26:59.5860,-1.29,-0.5,0.03
2019-11-21 14:26:59.6860,-0.52,-0.18,-0.25
2019-11-21 14:26:59.7860,0.29,1.47,-0.78
2019-11-21 14:26:59.8860,3.01,0.72,-0.23
2019-11-21 14:26:59.9860,1.19,0.82,-1.47
2019-11-21 14:27:00.0860,0.38,0.09,-0.19
2019-11-21 14:27:00.1860,-0.01,0.05,-0.09
2019-11-21 14:27:00.2870,-0.1,-0.13,-0.22
2019-11-21 14:27:00.3870,-0.23,0.28,0.04
2019-11-21 14:27:00.4870,-1.82,1.61,-0.2
2019-11-21 14:27:00.5870,-0.08,0.01,-0.44
2019-11-21 14:27:00.6870,-0.59,-0.4,-0.3
2019-11-21 14:27:00.7870,-0.33,0.21,-0.16
2019-11-21 14:27:00.8870,1.93,1.97,-0.86
2019-11-21 14:27:00.9870,1.23,0.9,0.48
2019-11-21 14:27:01.0870,0.0,0.23,0.05
2019-11-21 14:27:01.1870,0.04,0.1,-0.01
2019-11-21 14:27:01.2870,-0.12,0.03,0.07
2019-11-21 14:27:01.3870,-0.11,0.12,-0.04
2019-11-21 14:27:01.4870,-0.73,0.51,0.21
2019-11-21 14:27:01.5870,-2.22,0.41,-0.17
2019-11-21 14:27:01.6870,-1.6,-0.68,0.24
2019-11-21 14:27:01.7870,-0.55,-0.32,0.03
2019-11-21 14:27:01.8870,-0.07,1.22,0.01
2019-11-21 14:27:01.9870,3.47,0.72,-0.42
2019-11-21 14:27:02.0880,0.74,0.99,-1.07
2019-11-21 14:27:02.1880,0.18,0.09,-0.11
2019-11-21 14:27:02.2880,-0.06,0.06,-0.14
2019-11-21 14:27:02.3880,-0.12,-0.2,-0.2
2019-11-21 14:27:02.4880,-0.28,0.23,0.13
2019-11-21 14:27:02.5880,-1.86,1.72,-0.25
2019-11-21 14:27:02.6880,-0.26,0.32,-0.62
2019-11-21 14:27:02.7880,-0.74,-0.38,-0.28
2019-11-21 14:27:02.8880,-0.21,0.56,-0.34
2019-11-21 14:27:02.9880,2.05,1.24,-0.5
2019-11-21 14:27:03.0880,-0.99,2.21,1.77
2019-11-21 14:27:03.1890,-0.31,-0.01,0.01
2019-11-21 14:27:03.2880,-0.17,-0.07,-0.19
2019-11-21 14:27:03.3880,0.03,0.05,-0.07
2019-11-21 14:27:03.4880,-0.21,0.01,-0.1
2019-11-21 14:27:03.5880,-0.82,0.66,0.35
2019-11-21 14:27:03.6880,-2.21,0.43,0.14
2019-11-21 14:27:03.7890,-1.4,-0.58,0.17
2019-11-21 14:27:03.8890,-0.46,-0.19,0.01
2019-11-21 14:27:03.9880,0.26,1.49,-0.03
2019-11-21 14:27:04.0880,3.19,0.63,-0.45
2019-11-21 14:27:04.1890,1.17,-0.18,-1.23
2019-11-21 14:27:04.2890,0.66,0.06,-0.2
2019-11-21 14:27:04.3890,-0.01,0.06,-0.13
2019-11-21 14:27:04.4890,-0.06,-0.17,-0.15
2019-11-21 14:27:04.5890,-0.26,0.18,0.1
2019-11-21 14:27:04.6890,-1.65,1.49,-0.21
2019-11-21 14:27:04.7890,0.05,0.06,-0.54
2019-11-21 14:27:04.8890,-0.49,-0.36,-0.23
2019-11-21 14:27:04.9890,-0.13,0.38,-0.08
2019-11-21 14:27:05.0890,1.99,1.67,-0.86
2019-11-21 14:27:05.1890,-0.73,1.8,1.13
2019-11-21 14:27:05.2900,-0.18,0.16,-0.1
2019-11-21 14:27:05.3900,-0.19,-0.02,-0.17
2019-11-21 14:27:05.4900,-0.02,0.09,0.04
2019-11-21 14:27:05.5890,-0.09,0.02,-0.12
2019-11-21 14:27:05.6900,-0.65,0.54,0.28
2019-11-21 14:27:05.7890,-2.17,0.42,-0.09
2019-11-21 14:27:05.8900,-1.52,-0.57,0.2
2019-11-21 14:27:05.9900,-0.52,-0.23,-0.01
2019-11-21 14:27:06.0900,0.25,1.44,-0.25
2019-11-21 14:27:06.1900,3.43,0.77,-0.64
2019-11-21 14:27:06.2900,1.44,0.48,-1.49
2019-11-21 14:27:06.3900,0.41,0.19,-0.11
2019-11-21 14:27:06.4900,0.01,0.05,-0.1
2019-11-21 14:27:06.5900,-0.09,-0.11,-0.2
2019-11-21 14:27:06.6900,-0.32,0.34,0.13
2019-11-21 14:27:06.7910,-1.84,1.58,-0.46
2019-11-21 14:27:06.8900,-0.96,0.07,-0.66
2019-11-21 14:27:06.9910,-0.54,-0.28,-0.24
2019-11-21 14:27:07.0900,0.13,0.45,-0.26
2019-11-21 14:27:07.1900,2.0,1.44,-0.52
2019-11-21 14:27:07.2900,-1.03,1.81,1.43
2019-11-21 14:27:07.3910,-0.28,0.16,0.15
2019-11-21 14:27:07.4910,-0.1,0.01,-0.13
2019-11-21 14:27:07.5910,-0.11,-0.0,-0.12
2019-11-21 14:27:07.6910,-0.06,0.12,-0.04
2019-11-21 14:27:07.7910,-0.81,0.59,0.34
2019-11-21 14:27:07.8910,-1.95,0.36,-0.0
2019-11-21 14:27:07.9910,-1.22,-0.5,-0.07
2019-11-21 14:27:08.0910,-0.42,-0.15,-0.37
2019-11-21 14:27:08.1910,0.13,1.58,-0.72
2019-11-21 14:27:08.2910,3.29,0.66,-0.5
2019-11-21 14:27:08.3910,1.53,-0.12,-1.67
2019-11-21 14:27:08.4910,0.52,0.12,-0.13
2019-11-21 14:27:08.5910,0.09,0.09,-0.06
2019-11-21 14:27:08.6910,-0.08,-0.12,-0.2
2019-11-21 14:27:08.7920,-0.36,0.43,0.09
2019-11-21 14:27:08.8910,-1.75,1.27,-0.48
2019-11-21 14:27:08.9920,-1.0,-0.15,-0.59
2019-11-21 14:27:09.0910,-0.58,-0.3,-0.21
2019-11-21 14:27:09.1920,-0.15,0.52,-0.2
2019-11-21 14:27:09.2910,2.36,1.3,-0.52
2019-11-21 14:27:09.3920,-1.32,1.12,1.41
2019-11-21 14:27:09.4920,-0.25,-0.18,-0.09
2019-11-21 14:27:09.5920,-0.26,-0.11,-0.2
2019-11-21 14:27:09.6920,-0.08,0.11,-0.09
2019-11-21 14:27:09.7920,-0.17,0.09,-0.03
2019-11-21 14:27:09.8920,-1.0,0.67,0.32
2019-11-21 14:27:09.9920,-1.15,0.25,-0.25
2019-11-21 14:27:10.0920,-1.01,-0.55,-0.13
2019-11-21 14:27:10.1920,-0.49,-0.2,-0.14
2019-11-21 14:27:10.2920,0.51,1.95,-0.36
2019-11-21 14:27:10.3920,3.09,0.59,-0.35
2019-11-21 14:27:10.4920,1.97,0.25,-1.18
2019-11-21 14:27:10.5920,0.6,0.26,-0.21
2019-11-21 14:27:10.6930,-0.01,0.07,-0.1
2019-11-21 14:27:10.7930,-0.14,0.04,-0.22
2019-11-21 14:27:10.8930,-0.42,0.32,0.1
2019-11-21 14:27:10.9930,-1.76,1.59,-0.55
2019-11-21 14:27:11.0930,-1.13,-0.4,-0.49
2019-11-21 14:27:11.1930,-0.67,-0.19,-0.15
2019-11-21 14:27:11.2930,0.02,0.68,-0.14
2019-11-21 14:27:11.3930,2.53,1.08,-0.24
2019-11-21 14:27:11.4930,-2.29,0.98,1.12
2019-11-21 14:27:11.5930,-0.2,-0.17,-0.11
2019-11-21 14:27:11.6930,-0.14,-0.01,-0.21
2019-11-21 14:27:11.7930,1.18,-0.06,-0.75
2019-11-21 14:27:11.8940,-0.19,0.15,0.02
2019-11-21 14:27:11.9930,-1.14,0.75,0.44
2019-11-21 14:27:12.0930,-1.19,0.42,-0.18
2019-11-21 14:27:12.1930,-0.89,-0.58,-0.09
2019-11-21 14:27:12.2940,-0.61,-0.15,-0.24
2019-11-21 14:27:12.3930,0.27,2.2,-1.03
2019-11-21 14:27:12.4930,2.77,0.51,-0.15
2019-11-21 14:27:12.5940,1.51,0.95,-1.13
2019-11-21 14:27:12.6940,0.45,0.16,-0.17
2019-11-21 14:27:12.7940,0.04,0.04,-0.06
2019-11-21 14:27:12.8940,-0.03,-0.05,-0.21
2019-11-21 14:27:12.9940,-0.39,0.35,0.14
2019-11-21 14:27:13.0940,-1.91,1.39,-0.4
2019-11-21 14:27:13.1940,-0.68,0.13,-0.63
2019-11-21 14:27:13.2940,-0.64,-0.32,-0.23
2019-11-21 14:27:13.3940,-0.15,0.54,-0.26
2019-11-21 14:27:13.4940,2.25,1.33,-0.6
2019-11-21 14:27:13.5940,-2.19,1.93,1.28
2019-11-21 14:27:13.6940,-0.32,-0.33,-0.13
2019-11-21 14:27:13.7940,-0.23,-0.05,-0.1
2019-11-21 14:27:13.8940,-0.04,0.07,-0.12
2019-11-21 14:27:13.9950,-0.07,0.08,-0.02
2019-11-21 14:27:14.0940,-0.89,0.56,0.29
2019-11-21 14:27:14.1940,-1.86,0.33,-0.2
2019-11-21 14:27:14.2950,-1.16,-0.53,0.02
2019-11-21 14:27:14.3950,-0.52,-0.2,-0.12
2019-11-21 14:27:14.4950,0.31,2.01,-0.29
2019-11-21 14:27:14.5950,3.13,0.64,-0.43
2019-11-21 14:27:14.6950,1.48,0.48,-1.28
2019-11-21 14:27:14.7950,0.41,0.15,-0.12
2019-11-21 14:27:14.8950,0.03,0.05,-0.1
2019-11-21 14:27:14.9950,0.01,-0.14,-0.19
2019-11-21 14:27:15.0950,-0.39,0.3,0.03
2019-11-21 14:27:15.1950,-1.81,1.42,-0.11
2019-11-21 14:27:15.2950,-0.78,0.08,-0.52
2019-11-21 14:27:15.3950,-0.59,-0.29,-0.14
2019-11-21 14:27:15.4950,-0.11,0.65,-0.25
2019-11-21 14:27:15.5950,2.21,1.33,-0.57
2019-11-21 14:27:15.6960,-2.65,2.18,1.62
2019-11-21 14:27:15.7950,-0.34,-0.28,-0.2
2019-11-21 14:27:15.8960,-0.14,-0.06,-0.27
2019-11-21 14:27:15.9960,-0.11,0.01,-0.13
2019-11-21 14:27:16.0960,-0.08,0.12,-0.0
2019-11-21 14:27:16.1960,-0.67,0.54,0.24
2019-11-21 14:27:16.2950,-1.79,0.49,-0.29
2019-11-21 14:27:16.3960,-1.47,-0.6,0.17
2019-11-21 14:27:16.4960,-0.5,-0.18,-0.4
2019-11-21 14:27:16.5960,0.24,1.66,-0.97
2019-11-21 14:27:16.6960,2.59,0.82,-0.38
2019-11-21 14:27:16.7960,1.23,0.53,-1.55
2019-11-21 14:27:16.8960,0.46,0.17,-0.23
2019-11-21 14:27:16.9960,0.07,0.09,-0.1
2019-11-21 14:27:17.0960,-0.12,-0.2,-0.22
2019-11-21 14:27:17.1960,-0.23,0.19,0.05
2019-11-21 14:27:17.2960,-1.57,1.47,-0.18
2019-11-21 14:27:17.3960,-0.29,0.11,-0.3
2019-11-21 14:27:17.4960,-0.63,-0.41,-0.27
2019-11-21 14:27:17.5970,-0.29,0.19,-0.13
2019-11-21 14:27:17.6970,1.95,1.83,-0.93
2019-11-21 14:27:17.7960,1.83,0.68,0.49
2019-11-21 14:27:17.8970,-0.03,0.34,0.02
2019-11-21 14:27:17.9970,-0.05,0.06,-0.03
2019-11-21 14:27:18.0970,-0.05,0.03,-0.02
2019-11-21 14:27:18.1970,-0.09,0.01,-0.09
2019-11-21 14:27:18.2970,-0.37,0.35,0.08
2019-11-21 14:27:18.3970,-1.33,1.21,-0.13
2019-11-21 14:27:18.4970,-1.29,-0.68,-0.13
2019-11-21 14:27:18.5970,-0.45,-0.3,-0.22
2019-11-21 14:27:18.6970,-0.09,0.65,-0.19
2019-11-21 14:27:18.7970,2.61,1.05,-0.24
2019-11-21 14:27:18.8970,-2.76,0.85,1.39
2019-11-21 14:27:18.9970,-0.41,-0.37,-0.1
2019-11-21 14:27:19.0970,-0.12,-0.06,-0.19
2019-11-21 14:27:19.1970,0.01,-0.02,-0.15
2019-11-21 14:27:19.2970,-0.08,0.13,-0.01
2019-11-21 14:27:19.3980,-1.01,0.65,0.41
2019-11-21 14:27:19.4970,-1.02,0.61,-0.19
2019-11-21 14:27:19.5980,-0.96,-0.57,-0.05
2019-11-21 14:27:19.6970,-0.45,-0.2,-0.11
2019-11-21 14:27:19.7980,0.27,1.9,-0.64
2019-11-21 14:27:19.8970,3.19,0.54,-0.5
2019-11-21 14:27:19.9980,1.53,0.44,-1.58
2019-11-21 14:27:20.0980,0.32,0.13,-0.13
2019-11-21 14:27:20.1980,0.05,0.05,-0.09
2019-11-21 14:27:20.2980,-0.01,-0.06,-0.13
2019-11-21 14:27:20.3980,-0.2,0.21,-0.01
2019-11-21 14:27:20.4980,-1.64,1.51,0.04
2019-11-21 14:27:20.5980,-0.62,0.11,-0.43
2019-11-21 14:27:20.6990,-0.83,-0.46,-0.08
2019-11-21 14:27:20.7980,-0.2,0.2,-0.22
2019-11-21 14:27:20.8980,1.7,1.85,-1.11
2019-11-21 14:27:20.9980,2.01,0.88,0.83
2019-11-21 14:27:21.0990,0.0,0.38,0.18
2019-11-21 14:27:21.1990,-0.0,0.1,-0.08
2019-11-21 14:27:21.2990,-0.07,0.03,-0.13
2019-11-21 14:27:21.3990,-0.17,0.03,-0.09
2019-11-21 14:27:21.4990,-0.52,0.44,0.17
2019-11-21 14:27:21.5980,-2.03,0.81,-0.08
2019-11-21 14:27:21.6990,-1.43,-0.49,0.13
2019-11-21 14:27:21.7990,-0.53,-0.38,-0.15
2019-11-21 14:27:21.8990,0.01,1.22,-0.59
2019-11-21 14:27:21.9990,3.03,0.94,-0.43
2019-11-21 14:27:22.0990,0.94,0.4,0.04
2019-11-21 14:27:22.1990,-0.37,-0.06,-0.07
2019-11-21 14:27:22.2990,-0.04,0.02,-0.13
2019-11-21 14:27:22.3990,-0.0,-0.15,-0.21
2019-11-21 14:27:22.4990,-0.11,0.17,0.13
2019-11-21 14:27:22.5990,-1.5,1.31,0.2
2019-11-21 14:27:22.6990,-0.55,0.01,-0.42
2019-11-21 14:27:22.7990,-0.64,-0.41,-0.27
2019-11-21 14:27:22.9000,-0.24,0.21,-0.13
2019-11-21 14:27:22.9990,1.6,1.81,-0.75
2019-11-21 14:27:23.0990,1.87,1.04,0.01
2019-11-21 14:27:23.2000,-0.21,0.41,0.08
2019-11-21 14:27:23.3000,-0.02,0.14,-0.01
2019-11-21 14:27:23.4000,-0.0,0.09,0.0
2019-11-21 14:27:23.5000,-0.14,-0.03,-0.15
2019-11-21 14:27:23.6000,-0.64,0.55,0.35
2019-11-21 14:27:23.7000,-1.94,0.53,-0.16
2019-11-21 14:27:23.8000,-1.19,-0.52,0.06
2019-11-21 14:27:23.9000,-0.43,-0.26,-0.27
2019-11-21 14:27:24.0000,-0.06,1.44,-0.6
2019-11-21 14:27:24.1000,3.1,0.79,-0.64
2019-11-21 14:27:24.2000,0.7,0.58,-1.55
2019-11-21 14:27:24.3000,0.42,0.18,-0.25
2019-11-21 14:27:24.4000,0.02,0.07,-0.19
2019-11-21 14:27:24.5010,-0.11,-0.25,-0.3
2019-11-21 14:27:24.6010,-0.19,0.22,0.1
2019-11-21 14:27:24.7000,-1.89,1.68,-0.49
2019-11-21 14:27:24.8010,-0.46,0.3,-0.45
2019-11-21 14:27:24.9010,-0.58,-0.41,-0.32
2019-11-21 14:27:25.0010,-0.25,0.32,-0.24
2019-11-21 14:27:25.1000,1.99,1.71,-0.89
2019-11-21 14:27:25.2010,1.89,0.63,0.47
2019-11-21 14:27:25.3010,0.07,0.38,0.12
2019-11-21 14:27:25.4010,0.06,0.14,-0.03
2019-11-21 14:27:25.5010,-0.08,0.04,-0.13
2019-11-21 14:27:25.6010,-0.09,0.06,-0.07
2019-11-21 14:27:25.7010,-0.35,0.34,0.06
2019-11-21 14:27:25.8010,-1.38,1.18,-0.09
2019-11-21 14:27:25.9020,-1.38,-0.51,0.03
2019-11-21 14:27:26.0010,-0.5,-0.33,-0.1
2019-11-21 14:27:26.1010,-0.09,0.68,-0.16
2019-11-21 14:27:26.2010,2.84,1.11,-0.4
2019-11-21 14:27:26.3010,0.76,-0.36,0.85
2019-11-21 14:27:26.4010,-0.42,-0.16,-0.15
2019-11-21 14:27:26.5020,-0.1,-0.08,-0.18
2019-11-21 14:27:26.6020,-0.06,0.12,-0.06
2019-11-21 14:27:26.7020,-0.14,0.06,-0.11
2019-11-21 14:27:26.8020,-0.81,0.51,0.18
2019-11-21 14:27:26.9020,-1.88,0.5,-0.22
2019-11-21 14:27:27.0020,-1.26,-0.51,0.09
2019-11-21 14:27:27.1020,-0.53,-0.32,-0.09
2019-11-21 14:27:27.2020,0.05,1.34,-0.43
2019-11-21 14:27:27.3020,3.04,0.78,-0.5
2019-11-21 14:27:27.4020,0.87,0.28,-1.27
2019-11-21 14:27:27.5020,0.05,0.1,-0.07
2019-11-21 14:27:27.6020,0.03,0.02,-0.15
2019-11-21 14:27:27.7020,0.03,-0.02,-0.07
2019-11-21 14:27:27.8020,-0.16,0.07,-0.02
2019-11-21 14:27:27.9020,-1.21,1.01,0.41
2019-11-21 14:27:28.0020,-0.63,0.54,-0.23
2019-11-21 14:27:28.1020,-0.86,-0.53,-0.17
2019-11-21 14:27:28.2030,-0.48,-0.15,-0.1
2019-11-21 14:27:28.3020,0.83,1.82,-0.56
2019-11-21 14:27:28.4020,2.81,0.67,-0.13
2019-11-21 14:27:28.5030,0.94,0.1,-0.06
2019-11-21 14:27:28.6030,0.52,0.16,-0.17
2019-11-21 14:27:28.7030,0.13,0.11,-0.05
2019-11-21 14:27:28.8030,0.0,-0.06,-0.03
2019-11-21 14:27:28.9030,-0.33,0.34,-0.09
2019-11-21 14:27:29.0030,-1.79,1.28,-0.42
2019-11-21 14:27:29.1030,-0.59,0.0,-0.69
2019-11-21 14:27:29.2030,-0.42,-0.36,-0.26
2019-11-21 14:27:29.3030,-0.15,0.32,-0.0
2019-11-21 14:27:29.4030,2.2,1.56,-0.64
2019-11-21 14:27:29.5030,-1.57,2.22,1.41
2019-11-21 14:27:29.6030,-0.39,0.15,-0.2
2019-11-21 14:27:29.7030,-0.1,0.02,-0.14
2019-11-21 14:27:29.8030,0.02,0.07,-0.04
2019-11-21 14:27:29.9030,0.01,-0.03,-0.16
2019-11-21 14:27:30.0040,-0.23,0.25,0.14
2019-11-21 14:27:30.1030,-1.5,1.44,-0.5
2019-11-21 14:27:30.2040,-1.08,-0.33,-0.45
2019-11-21 14:27:30.3030,-0.43,-0.29,-0.19
2019-11-21 14:27:30.4040,-0.1,0.31,-0.01
2019-11-21 14:27:30.5040,1.99,1.55,-0.53
2019-11-21 14:27:30.6040,-1.25,1.65,0.58
2019-11-21 14:27:30.7040,-0.3,0.35,-0.01
2019-11-21 14:27:30.8040,0.05,0.04,-0.07
2019-11-21 14:27:30.9040,-0.01,0.02,-0.11
2019-11-21 14:27:31.0040,-0.0,0.02,-0.12
2019-11-21 14:27:31.1040,-0.11,0.32,0.15
2019-11-21 14:27:31.2040,-1.53,1.2,-0.31
2019-11-21 14:27:31.3040,-0.81,-0.16,-0.42
2019-11-21 14:27:31.4040,-0.47,-0.46,-0.23
2019-11-21 14:27:31.5040,-0.22,0.11,-0.27
2019-11-21 14:27:31.6040,1.36,1.64,-0.2
2019-11-21 14:27:31.7040,1.4,0.99,0.76
2019-11-21 14:27:31.8040,0.01,0.48,0.25
2019-11-21 14:27:31.9050,0.13,0.07,-0.06
2019-11-21 14:27:32.0050,0.04,-0.02,-0.07
2019-11-21 14:27:32.1050,0.04,-0.0,-0.06
2019-11-21 14:27:32.2050,-0.2,0.32,0.01
2019-11-21 14:27:32.3050,-1.39,1.5,0.3
2019-11-21 14:27:32.4050,-0.57,-0.18,-0.62
2019-11-21 14:27:32.5050,-0.49,-0.4,-0.27
2019-11-21 14:27:32.6050,-0.12,0.11,-0.51
2019-11-21 14:27:32.7050,0.89,0.96,-0.75
2019-11-21 14:27:32.8050,1.56,0.39,-0.62
2019-11-21 14:27:32.9050,0.78,0.66,-0.03
2019-11-21 14:27:33.0050,-0.01,-0.11,-0.24
2019-11-21 14:27:33.1050,0.07,0.1,0.05
2019-11-21 14:27:33.2050,0.04,-0.04,-0.15
2019-11-21 14:27:33.3050,0.03,0.07,-0.03
2019-11-21 14:27:33.4060,0.06,-0.02,-0.01
2019-11-21 14:27:33.5060,-0.16,-0.04,-0.03
2019-11-21 14:27:33.6060,-0.08,-0.08,-0.12
2019-11-21 14:27:33.7060,0.01,-0.02,-0.06
2019-11-21 14:27:33.8050,-0.08,-0.0,-0.06
2019-11-21 14:27:33.9060,-0.0,-0.06,-0.07
2019-11-21 14:27:34.0060,0.02,0.05,-0.07
2019-11-21 14:27:34.1060,0.05,-0.03,-0.05
2019-11-21 14:27:34.2060,0.02,-0.01,-0.06
2019-11-21 14:27:34.3060,0.0,0.02,-0.02
2019-11-21 14:27:34.4060,-0.01,-0.01,-0.06
2019-11-21 14:27:34.5060,0.0,-0.01,-0.04
2019-11-21 14:27:34.6060,-0.03,0.01,-0.07
